Timestamp,Roll,Pitch,Yaw,GravX,GravY,GravZ,UserAccX,UserAccY,UserAccZ,GyroX,GyroY,GyroZ,TotalAccX,TotalAccY,TotalAccZ,Ground_Truth
1772192504,-0.0367,0.3803,0.0374,-0.0341,-0.3712,-0.9279,0.0012,-0.0337,0.0127,-0.2185,0.0046,0.1935,-0.0329,-0.4049,-0.9153,dws
1772192504,-0.035,0.3767,0.0414,-0.0325,-0.3678,-0.9293,-0.0156,-0.0034,0.0336,-0.1148,0.3068,0.1865,-0.0481,-0.3712,-0.8957,dws
1772192504,-0.029,0.3756,0.0448,-0.027,-0.3668,-0.9299,-0.0618,0.0213,0.0175,0.0094,0.3661,0.1326,-0.0888,-0.3455,-0.9124,dws
1772192504,-0.0233,0.3757,0.0472,-0.0217,-0.367,-0.93,-0.0403,0.0112,0.0435,-0.0212,0.3094,0.1168,-0.062,-0.3557,-0.8865,dws
1772192504,-0.0177,0.3736,0.0516,-0.0165,-0.365,-0.9309,0.0165,-0.0314,0.0754,-0.1924,0.3907,0.3246,0,-0.3964,-0.8555,dws
1772192504,-0.0133,0.3677,0.0613,-0.0124,-0.3595,-0.9331,0.0133,-0.043,0.0688,-0.3997,0.4106,0.5811,0.0008,-0.4024,-0.8642,dws
1772192504,-0.0102,0.3577,0.075,-0.0096,-0.3501,-0.9367,-0.0258,-0.0254,0.0491,-0.5546,0.3953,0.6861,-0.0354,-0.3755,-0.8876,dws
1772192504,-0.0076,0.3478,0.089,-0.0071,-0.3408,-0.9401,-0.076,-0.0196,-0.0798,-0.3782,0.3141,0.6219,-0.0831,-0.3605,-1.0199,dws
1772192504,-0.0088,0.3428,0.1019,-0.0083,-0.3361,-0.9418,-0.0492,-0.0019,-0.1232,-0.1473,0.0122,0.6016,-0.0575,-0.338,-1.065,dws
1772192504,-0.0141,0.3408,0.1153,-0.0133,-0.3342,-0.9424,-0.0239,0.0504,-0.0593,-0.052,-0.1273,0.6836,-0.0371,-0.2839,-1.0017,dws
1772192504,-0.0215,0.3404,0.1295,-0.0202,-0.3338,-0.9424,-0.1618,-0.1306,0.0214,-0.1455,0.047,0.4791,-0.182,-0.4644,-0.921,dws
1772192504,-0.0242,0.3352,0.1387,-0.0229,-0.329,-0.9441,-0.0426,0.1168,-0.0889,-0.2929,-0.2403,0.4251,-0.0655,-0.2122,-1.0329,dws
1772192504,-0.0375,0.3277,0.1463,-0.0355,-0.3219,-0.9461,-0.0546,0.0332,-0.1008,-0.4541,-0.818,0.3286,-0.0901,-0.2887,-1.047,dws
1772192504,-0.0601,0.3161,0.1513,-0.0571,-0.3109,-0.9487,-0.0604,0.0427,-0.0268,-0.6581,-1.1662,0.2337,-0.1175,-0.2681,-0.9755,dws
1772192504,-0.0836,0.2999,0.1544,-0.0797,-0.2955,-0.952,-0.1689,0.1394,-0.0313,-1.0227,-0.8117,0.1829,-0.2486,-0.1561,-0.9834,dws
1772192504,-0.0991,0.2776,0.1544,-0.0952,-0.274,-0.957,-0.1807,0.0795,-0.0937,-1.157,-0.9141,0.0195,-0.2758,-0.1946,-1.0507,dws
1772192504,-0.1142,0.256,0.1494,-0.1102,-0.2532,-0.9611,-0.1151,0.0981,-0.0463,-1.189,-0.5146,-0.2877,-0.2253,-0.1551,-1.0074,dws
1772192504,-0.1136,0.2278,0.1362,-0.1105,-0.2258,-0.9679,-0.1066,0.1966,0.0024,-1.368,-0.0997,-0.6435,-0.2171,-0.0292,-0.9655,dws
1772192504,-0.1123,0.2096,0.1182,-0.1096,-0.208,-0.972,-0.1306,0.2312,-0.1277,-0.6523,-0.2041,-0.8495,-0.2402,0.0231,-1.0997,dws
1772192504,-0.1105,0.2035,0.0995,-0.108,-0.2021,-0.9734,-0.0802,0.3217,-0.0014,-0.2612,0.0521,-0.9469,-0.1881,0.1196,-0.9748,dws
1772192504,-0.1017,0.202,0.0778,-0.0995,-0.2007,-0.9746,-0.0931,0.1593,0.0757,-0.1547,0.4573,-1.1412,-0.1925,-0.0414,-0.8988,dws
1772192504,-0.087,0.2014,0.0537,-0.0851,-0.2,-0.9761,-0.0921,0.1074,0.0289,-0.1322,0.4254,-1.2075,-0.1772,-0.0927,-0.9471,dws
1772192504,-0.0791,0.1995,0.0327,-0.0775,-0.1982,-0.9771,-0.0228,0.4074,0.0602,-0.2521,-0.0305,-0.8676,-0.1003,0.2091,-0.9169,dws
1772192504,-0.0727,0.1979,0.0147,-0.0712,-0.1966,-0.9779,-0.1167,0.0997,0.0586,0.1397,0.411,-0.8728,-0.1879,-0.0969,-0.9193,dws
1772192504,-0.0493,0.2113,0.0004,-0.0482,-0.2097,-0.9766,-0.0026,0.0452,-0.0388,1.0348,1.8815,-0.5589,-0.0508,-0.1645,-1.0154,dws
1772192504,0.0017,0.2364,-0.0035,0.0016,-0.2342,-0.9722,-0.0681,0.1588,0.1041,1.4652,2.7617,0.1243,-0.0664,-0.0754,-0.868,dws
1772192504,0.0214,0.2665,0.0003,0.0206,-0.2634,-0.9645,0.232,-0.174,-0.1252,1.3468,-0.9699,-0.0603,0.2527,-0.4374,-1.0897,dws
1772192504,-0.0066,0.2867,-0.011,-0.0064,-0.2828,-0.9592,0.1755,-0.3626,0.0213,0.7884,-1.6879,-0.7837,0.1692,-0.6454,-0.9379,dws
1772192504,-0.0298,0.3008,-0.0207,-0.0285,-0.2963,-0.9547,0.3111,-0.1405,0.2289,0.5441,-0.9933,-0.2255,0.2826,-0.4368,-0.7257,dws
1772192504,-0.0469,0.3036,-0.0264,-0.0447,-0.299,-0.9532,0.0496,-0.2842,0.301,-0.3284,-0.8926,-0.2708,0.0049,-0.5831,-0.6522,dws
1772192504,-0.0646,0.2888,-0.0289,-0.0619,-0.2848,-0.9566,0.097,-0.0877,0.3033,-1.1472,-1.0291,0.1626,0.0351,-0.3725,-0.6533,dws
1772192504,-0.0955,0.2587,-0.0168,-0.0922,-0.2558,-0.9623,-0.0884,0.0576,0.2169,-1.7362,-1.8463,1.3886,-0.1806,-0.1983,-0.7454,dws
1772192504,-0.1533,0.216,0.0213,-0.1491,-0.2143,-0.9653,-0.0822,0.279,0.4066,-1.9679,-3.2051,2.9421,-0.2314,0.0646,-0.5587,dws
1772192504,-0.2444,0.1742,0.0969,-0.2383,-0.1733,-0.9556,0.466,0.6752,-0.0398,-0.256,-4.0441,4.5756,0.2277,0.5019,-0.9954,dws
1772192505,-0.3359,0.166,0.1785,-0.3251,-0.1652,-0.9311,-0.1556,0.2284,0.02,1.4945,-3.9454,3.0882,-0.4807,0.0632,-0.9112,dws
1772192505,-0.4275,0.175,0.2333,-0.4082,-0.1741,-0.8961,-0.0442,0.0643,0.5886,1.0688,-4.3085,2.023,-0.4524,-0.1098,-0.3075,dws
1772192505,-0.5203,0.1628,0.2768,-0.4906,-0.1621,-0.8562,0.389,0.2225,0.8744,-0.2674,-4.1831,2.4072,-0.1016,0.0603,0.0182,dws
1772192505,-0.6031,0.1209,0.3079,-0.563,-0.1206,-0.8176,0.2432,0.2784,0.6647,-1.4085,-3.7655,2.3872,-0.3198,0.1578,-0.1529,dws
1772192505,-0.6802,0.0722,0.331,-0.6273,-0.0722,-0.7755,0.1653,0.367,-0.0515,-0.9792,-3.8406,2.448,-0.462,0.2949,-0.827,dws
1772192505,-0.7605,0.029,0.362,-0.689,-0.029,-0.7242,0.1385,0.4275,-0.1535,-0.2694,-3.9694,2.7546,-0.5505,0.3985,-0.8777,dws
1772192505,-0.8326,-0.0156,0.4008,-0.7396,0.0156,-0.6728,0.0594,0.2922,-0.1375,-0.1394,-3.281,3.2274,-0.6802,0.3078,-0.8103,dws
1772192505,-0.8893,-0.0684,0.4393,-0.7748,0.0683,-0.6285,-0.0776,0.0894,-0.1695,-0.3722,-2.6073,3.228,-0.8524,0.1578,-0.798,dws
1772192505,-0.9344,-0.1237,0.4718,-0.7981,0.1234,-0.5898,-0.0351,0.0665,-0.217,-0.4447,-2.4343,3.2015,-0.8332,0.1899,-0.8068,dws
1772192505,-0.9825,-0.1818,0.5037,-0.8182,0.1808,-0.5458,0.0338,0.034,-0.2,-0.3223,-2.8289,3.358,-0.7843,0.2148,-0.7458,dws
1772192505,-1.0282,-0.2393,0.5339,-0.832,0.2371,-0.5016,-0.1909,-0.0594,-0.2125,-0.3335,-2.2159,3.0136,-1.0228,0.1776,-0.7141,dws
1772192505,-1.054,-0.2899,0.5521,-0.8331,0.2858,-0.4735,-0.4409,-0.1966,-0.25,-0.7189,-0.9871,2.2855,-1.274,0.0892,-0.7235,dws
1772192505,-1.0655,-0.3333,0.5579,-0.8269,0.3272,-0.4574,-0.3929,-0.2772,-0.2663,-0.9011,-0.4099,1.8189,-1.2198,0.05,-0.7237,dws
1772192505,-1.0712,-0.371,0.5583,-0.8181,0.3626,-0.4465,-0.3518,-0.212,-0.2676,-0.8541,-0.2362,1.5747,-1.1699,0.1506,-0.7141,dws
1772192505,-1.0762,-0.4047,0.5609,-0.809,0.3937,-0.4364,-0.2948,-0.138,-0.3105,-0.5091,-0.3693,1.5137,-1.1039,0.2558,-0.7469,dws
1772192505,-1.0817,-0.4324,0.569,-0.8015,0.4191,-0.4266,-0.341,-0.1944,-0.3304,-0.1653,-0.5772,1.2667,-1.1425,0.2247,-0.757,dws
1772192505,-1.0866,-0.4519,0.579,-0.7962,0.4366,-0.4188,-0.388,-0.2178,-0.3378,0.0179,-0.2237,0.8492,-1.1842,0.2188,-0.7566,dws
1772192505,-1.0815,-0.4642,0.5858,-0.7893,0.4477,-0.4203,-0.3192,-0.164,-0.2086,-0.1067,0.4471,0.5702,-1.1085,0.2837,-0.6289,dws
1772192505,-1.0703,-0.4762,0.5867,-0.7797,0.4584,-0.4265,-0.2214,-0.1686,-0.0449,-0.3503,0.5018,0.5301,-1.0011,0.2898,-0.4714,dws
1772192505,-1.0628,-0.4865,0.5872,-0.7723,0.4675,-0.43,-0.3661,-0.1024,-0.1794,-0.0181,0.2347,0.3945,-1.1384,0.3651,-0.6094,dws
1772192505,-1.0549,-0.4901,0.5965,-0.7674,0.4707,-0.4353,-0.4632,0.0259,-0.3379,0.5425,0.211,0.3249,-1.2306,0.4966,-0.7732,dws
1772192505,-1.0388,-0.4871,0.6144,-0.7616,0.4681,-0.4482,-0.457,0.0177,-0.3499,0.96,0.6124,0.2116,-1.2186,0.4857,-0.7982,dws
1772192505,-1.0138,-0.478,0.6369,-0.7537,0.46,-0.4694,-0.4568,0.0436,-0.3032,1.2205,0.7346,0.0029,-1.2105,0.5036,-0.7725,dws
1772192505,-0.994,-0.4599,0.6618,-0.7511,0.4438,-0.4887,-0.4635,0.0094,-0.2216,1.6784,0.0338,-0.3418,-1.2146,0.4532,-0.7102,dws
1772192505,-0.9838,-0.4314,0.6923,-0.7563,0.4181,-0.5031,-0.3322,0.0985,-0.3948,2.2286,-0.1919,-0.4128,-1.0886,0.5166,-0.8979,dws
1772192505,-0.9691,-0.4002,0.7351,-0.7592,0.3896,-0.5213,-0.2518,0.2535,-0.679,2.683,-0.0367,0.0384,-1.0111,0.6431,-1.2003,dws
1772192505,-0.9557,-0.3755,0.7785,-0.7598,0.3667,-0.5368,-0.302,0.0338,-0.0149,1.9399,-0.4481,0.1639,-1.0619,0.4005,-0.5517,dws
1772192505,-0.9628,-0.3583,0.8079,-0.7687,0.3507,-0.5349,-0.0793,-0.1938,0.4551,1.3394,-1.4287,0.0931,-0.848,0.1569,-0.0798,dws
1772192505,-0.9878,-0.3523,0.8319,-0.7836,0.345,-0.5167,0.3181,0.149,0.3469,1.1865,-1.5155,0.6131,-0.4655,0.4941,-0.1698,dws
1772192505,-1.0019,-0.3419,0.8733,-0.7938,0.3352,-0.5075,0.2576,0.3992,-0.0794,1.9838,-1.545,0.5941,-0.5361,0.7345,-0.5869,dws
1772192505,-1.0114,-0.3352,0.9053,-0.8004,0.3289,-0.5012,0.0928,-0.0635,0.7042,1.2324,-0.3005,0.4098,-0.7076,0.2655,0.2031,dws
1772192505,-1.0009,-0.3274,0.9303,-0.7972,0.3216,-0.5109,0.2059,-0.02,0.26,1.1025,0.6787,0.1172,-0.5913,0.3016,-0.251,dws
1772192505,-0.985,-0.3233,0.9435,-0.7901,0.3177,-0.5242,0.408,-0.1024,0.5093,0.3454,0.4876,0.2849,-0.3821,0.2153,-0.0149,dws
1772192505,-0.9798,-0.3258,0.9541,-0.7867,0.32,-0.5279,0.6137,-0.1196,0.3075,0.0346,-0.3311,0.5645,-0.1731,0.2005,-0.2204,dws
1772192505,-0.9861,-0.3382,0.9573,-0.7867,0.3318,-0.5207,0.4937,-0.3052,0.2998,-0.1379,-0.3891,0.4848,-0.293,0.0266,-0.2209,dws
1772192505,-0.99,-0.3438,0.9599,-0.7871,0.3371,-0.5166,0.1858,-0.3608,-0.0767,-0.0034,-0.0472,0.1012,-0.6013,-0.0238,-0.5933,dws
1772192505,-0.988,-0.343,0.962,-0.7863,0.3363,-0.5183,-0.1941,-0.2484,-0.2448,0.1348,0.0865,-0.0181,-0.9804,0.0879,-0.7631,dws
1772192505,-0.9907,-0.3421,0.964,-0.7879,0.3355,-0.5163,-0.318,-0.2183,-0.1534,0.1544,-0.5671,0.1122,-1.1059,0.1172,-0.6698,dws
1772192505,-1.005,-0.3433,0.9711,-0.7949,0.3366,-0.5048,-0.1712,0.0657,-0.0836,0.2577,-0.9781,0.3321,-0.9661,0.4023,-0.5884,dws
1772192505,-1.0195,-0.342,0.9746,-0.8025,0.3354,-0.4934,-0.3715,0.115,0.1713,0.0422,-0.5305,-0.3964,-1.174,0.4504,-0.3221,dws
1772192505,-1.0317,-0.3304,0.9623,-0.8117,0.3244,-0.4856,-0.2288,0.145,0.3635,-0.3702,-0.4674,-1.0713,-1.0405,0.4694,-0.1221,dws
1772192505,-1.0543,-0.3125,0.9465,-0.8274,0.3074,-0.4699,-0.22,0.2681,-0.1331,0.039,-1.09,-1.2085,-1.0475,0.5755,-0.603,dws
1772192505,-1.0701,-0.2939,0.9367,-0.8396,0.2896,-0.4595,0.0696,0.2538,-0.2799,-0.2446,-0.0535,-0.5398,-0.7701,0.5435,-0.7394,dws
1772192505,-1.0709,-0.2948,0.9334,-0.8398,0.2905,-0.4586,0.5506,0.4269,-0.2569,-0.061,-0.2751,0.2044,-0.2891,0.7175,-0.7155,dws
1772192505,-1.0687,-0.2955,0.9394,-0.8386,0.2912,-0.4604,0.0102,0.1752,-0.4397,0.701,0.1623,0.2291,-0.8284,0.4664,-0.9001,dws
1772192505,-1.0548,-0.3052,0.9444,-0.8296,0.3005,-0.4706,0.31,-0.0575,0.5445,-0.3155,0.9309,0.5863,-0.5196,0.243,0.0739,dws
1772192505,-1.0396,-0.3143,0.9454,-0.82,0.3091,-0.4817,0.1153,-0.0206,0.2026,-0.1921,0.6795,0.3617,-0.7047,0.2885,-0.2792,dws
1772192505,-1.0275,-0.3242,0.944,-0.8114,0.3185,-0.49,0.2983,-0.0926,0.3046,-0.4439,0.462,0.415,-0.5131,0.2259,-0.1854,dws
1772192505,-1.0236,-0.3399,0.9397,-0.8051,0.3334,-0.4906,0.5941,-0.246,0.3947,-0.6811,0.01,0.8146,-0.211,0.0874,-0.0959,dws
1772192505,-1.0355,-0.368,0.9384,-0.8025,0.3597,-0.476,0.5489,-0.1617,0.2457,-0.999,-1.1542,1.7286,-0.2536,0.198,-0.2303,dws
1772192506,-1.0717,-0.4221,0.9352,-0.8009,0.4097,-0.4366,0.6699,-0.0531,0.3804,-2.0806,-2.2927,2.8037,-0.131,0.3566,-0.0562,dws
1772192506,-1.1311,-0.4951,0.9155,-0.7962,0.4752,-0.3745,0.2384,-0.1111,0.0547,-2.883,-2.8736,2.8066,-0.5578,0.3641,-0.3199,dws
1772192506,-1.2024,-0.5629,0.8787,-0.789,0.5336,-0.3045,-0.0896,0.052,-0.4404,-2.4132,-2.3907,2.252,-0.8786,0.5856,-0.7449,dws
1772192506,-1.2597,-0.6203,0.8535,-0.7746,0.5813,-0.2491,-0.0192,0.3213,-0.3863,-1.7309,-1.9135,2.3541,-0.7939,0.9026,-0.6354,dws
1772192506,-1.3109,-0.6725,0.8267,-0.756,0.623,-0.201,-0.1423,0.0027,-0.0716,-1.825,-1.5885,2.1635,-0.8983,0.6257,-0.2726,dws
1772192506,-1.3546,-0.7199,0.7918,-0.7344,0.6593,-0.1613,-0.4396,-0.2133,0.3323,-1.9391,-0.3383,1.8451,-1.174,0.446,0.171,dws
1772192506,-1.3727,-0.7662,0.7555,-0.7065,0.6934,-0.1418,-0.5125,-0.0649,0.1028,-1.5644,0.5863,2.0215,-1.219,0.6285,-0.039,dws
1772192506,-1.3857,-0.8,0.7281,-0.6848,0.7174,-0.1282,-0.7397,0.5059,-0.2207,-0.971,0.0829,1.2624,-1.4245,1.2233,-0.3489,dws
1772192506,-1.3907,-0.8278,0.7195,-0.6656,0.7364,-0.1212,-0.4457,0.2173,-0.0866,-0.151,0.181,1.4386,-1.1113,0.9538,-0.2078,dws
1772192506,-1.3782,-0.8547,0.7277,-0.6443,0.7543,-0.1257,-0.1472,-0.0738,0.1859,0.0538,0.3982,1.2435,-0.7915,0.6806,0.0602,dws
1772192506,-1.3661,-0.8801,0.7356,-0.6238,0.7708,-0.1295,0.1951,-0.1237,0.1212,-0.0082,0.1267,1.4426,-0.4287,0.6471,-0.0083,dws
1772192506,-1.3589,-0.9102,0.7487,-0.5999,0.7896,-0.129,0.1165,-0.185,0.0275,0.196,-0.3094,1.6016,-0.4834,0.6046,-0.1015,dws
1772192506,-1.3579,-0.9427,0.7656,-0.5743,0.8092,-0.1241,-0.1144,-0.1786,0.0225,0.0958,-0.8473,1.7918,-0.6887,0.6306,-0.1016,dws
1772192506,-1.368,-0.9789,0.7869,-0.5465,0.8299,-0.1124,-0.001,0.1188,-0.3994,0.1236,-2.3843,2.6175,-0.5475,0.9486,-0.5118,dws
1772192506,-1.3957,-1.0291,0.7956,-0.5077,0.8568,-0.0898,-0.5193,0.1815,-0.2484,0.1137,-0.9255,1.2241,-1.027,1.0383,-0.3382,dws
1772192506,-1.3842,-1.047,0.8225,-0.4915,0.8659,-0.0928,0.0947,0.2994,0.1016,0.6935,-0.3806,0.977,-0.3968,1.1653,0.0088,dws
1772192506,-1.3658,-1.0593,0.8457,-0.4792,0.872,-0.0996,0.0606,0.113,0.2251,0.1769,0.1148,0.5276,-0.4187,0.985,0.1255,dws
1772192506,-1.3542,-1.0666,0.8518,-0.4718,0.8756,-0.1038,0.1202,-0.0516,0.0481,-0.0218,0.3081,0.3288,-0.3516,0.824,-0.0557,dws
1772192506,-1.351,-1.0737,0.8524,-0.4654,0.879,-0.104,-0.1105,-0.2199,0.1031,-0.0654,0.0502,0.4118,-0.5759,0.6591,-0.0008,dws
1772192506,-1.3458,-1.0846,0.8544,-0.4555,0.8841,-0.1043,-0.2424,-0.3751,0.0878,-0.1477,0.4451,0.7951,-0.6979,0.509,-0.0164,dws
1772192506,-1.3399,-1.1046,0.8457,-0.4376,0.8933,-0.1029,-0.5196,-0.3285,0.078,-0.7443,0.9785,0.9131,-0.9572,0.5648,-0.0249,dws
1772192506,-1.3522,-1.1254,0.8082,-0.4205,0.9024,-0.0934,-0.3168,-0.216,-0.0473,-1.1877,1.1779,0.7201,-0.7374,0.6864,-0.1407,dws
1772192506,-1.3794,-1.1368,0.7553,-0.4128,0.9073,-0.08,-0.1286,0.1796,-0.0111,-1.1283,0.669,-0.0318,-0.5414,1.0869,-0.0911,dws
1772192506,-1.4062,-1.1377,0.7206,-0.414,0.9077,-0.0687,0.4022,0.6915,0.0028,-0.3485,-0.1754,0.0147,-0.0118,1.5992,-0.0659,dws
1772192506,-1.4212,-1.1365,0.7079,-0.4161,0.9072,-0.0627,0.0177,0.3319,0.0576,-0.2529,0.148,-0.2469,-0.3984,1.239,-0.0051,dws
1772192506,-1.4143,-1.1269,0.6964,-0.4242,0.9031,-0.0669,-0.219,0.0428,-0.1057,-0.0347,1.567,-0.8191,-0.6432,0.9459,-0.1726,dws
1772192506,-1.3809,-1.1095,0.692,-0.4371,0.8955,-0.084,-0.0397,0.0573,0.134,0.1083,2.0184,-0.8085,-0.4768,0.9528,0.05,dws
1772192506,-1.3427,-1.1009,0.6967,-0.4411,0.8916,-0.1024,0.2976,-0.12,-0.0016,0.2669,1.2568,0.1974,-0.1435,0.7716,-0.104,dws
1772192506,-1.3076,-1.1188,0.719,-0.4217,0.8996,-0.1136,0.313,-0.129,-0.0634,0.2622,0.3559,1.6602,-0.1087,0.7706,-0.177,dws
1772192506,-1.2757,-1.1528,0.75,-0.3884,0.9139,-0.1181,0.0256,-0.1756,0.0205,0.0223,0.0943,1.8452,-0.3628,0.7383,-0.0976,dws
1772192506,-1.2533,-1.1867,0.7731,-0.356,0.9271,-0.117,0.0042,-0.1756,0.0229,-0.1602,0.0225,1.7158,-0.3518,0.7515,-0.094,dws
1772192506,-1.2338,-1.2196,0.7886,-0.3247,0.939,-0.1138,-0.0558,-0.1284,0.0258,-0.3519,0.5242,1.553,-0.3805,0.8105,-0.088,dws
1772192506,-1.2156,-1.2477,0.7955,-0.2977,0.9482,-0.1104,-0.002,-0.0351,0.0548,-0.3871,0.5475,1.2064,-0.2997,0.9131,-0.0556,dws
1772192506,-1.1976,-1.27,0.8079,-0.2759,0.9551,-0.108,0.2463,-0.4474,-0.1761,0.0224,-0.0787,1.0049,-0.0295,0.5078,-0.2841,dws
1772192506,-1.1988,-1.287,0.8176,-0.2608,0.96,-0.1018,0.1321,-0.2749,0.2442,-0.5903,-0.812,0.7124,-0.1287,0.6851,0.1424,dws
1772192506,-1.2296,-1.3016,0.7979,-0.2506,0.964,-0.089,0.0466,-0.407,-0.2089,-0.1639,-0.151,0.4769,-0.204,0.557,-0.2979,dws
1772192506,-1.2359,-1.3108,0.7885,-0.2428,0.9664,-0.0845,-0.075,-0.4255,0.1287,-0.7485,0.2988,0.3603,-0.3178,0.5409,0.0442,dws
1772192506,-1.3111,-1.3268,0.7018,-0.2335,0.9704,-0.062,0.0205,-0.3479,0.1432,-1.6647,0.4538,0.5797,-0.213,0.6224,0.0811,dws
1772192506,-1.4334,-1.3474,0.573,-0.2194,0.9752,-0.0303,0.1141,-0.3585,-0.0205,-1.5197,-0.1143,0.829,-0.1053,0.6166,-0.0509,dws
1772192506,-1.5222,-1.3594,0.4843,-0.2095,0.9777,-0.0102,0.1,-0.3007,-0.0133,-0.562,-0.1175,0.0169,-0.1096,0.677,-0.0235,dws
1772192506,-1.5856,-1.3535,0.424,-0.2155,0.9765,0.0032,0.1231,-0.3037,0.1763,-0.9165,-0.2218,-0.3796,-0.0924,0.6728,0.1795,dws
1772192506,-1.7068,-1.3622,0.3008,-0.2052,0.9783,0.0281,0.3077,-0.2407,-0.1895,-1.6467,-0.1922,1.7076,0.1025,0.7376,-0.1615,dws
1772192506,-1.9682,-1.4042,0.0467,-0.1529,0.9861,0.0642,0.2796,-0.4294,-0.0872,-2.0208,-0.4549,3.2354,0.1266,0.5567,-0.0231,dws
1772192506,-2.3285,-1.4452,-0.3214,-0.091,0.9921,0.0861,0.0825,-0.1029,0.1457,-0.1433,1.0984,3.0089,-0.0085,0.8892,0.2317,dws
1772192506,-2.7121,-1.4787,-0.7486,-0.0383,0.9958,0.0836,0.06,0.02,0.1102,-0.0472,2.7365,2.6308,0.0217,1.0157,0.1938,dws
1772192506,3.0419,-1.4966,-1.3158,0.0074,0.9972,0.0738,-0.0467,0.3072,-0.1729,1.5125,-0.64,2.4293,-0.0393,1.3045,-0.0991,dws
1772192506,2.2933,-1.5062,-1.9962,0.0484,0.9979,0.0427,-0.0322,4.4608,-0.4301,0.6616,-4.8025,0.7788,0.0162,5.4587,-0.3874,dws
1772192506,2.1732,-1.5124,-2.042,0.0481,0.9983,0.0331,-0.2069,0.3509,-0.1074,0.3651,-2.5217,-0.5787,-0.1588,1.3492,-0.0743,dws
1772192506,2.1657,-1.5216,-2.0341,0.0407,0.9988,0.0276,0.0699,-0.5217,0.733,-0.2555,0.8062,-0.1427,0.1107,0.4771,0.7606,dws
1772192506,2.4237,-1.5105,-1.8031,0.0396,0.9982,0.0454,0.0049,-0.0935,0.2134,-1.137,1.6245,0.0622,0.0445,0.9047,0.2587,dws
1772192506,2.5896,-1.4975,-1.6652,0.0384,0.9973,0.0624,0.0189,0.1,-0.3647,-0.3586,1.0735,-0.0478,0.0573,1.0973,-0.3023,dws
1772192507,2.639,-1.497,-1.6299,0.0355,0.9973,0.0647,0.1066,-0.0306,-0.2097,0.0823,0.4198,-0.1298,0.1421,0.9667,-0.1451,dws
1772192507,2.6556,-1.4998,-1.6185,0.0331,0.9975,0.0627,0.0966,-0.0546,0.0568,0.0864,0.2023,-0.0649,0.1297,0.9429,0.1195,dws
1772192507,2.6674,-1.4999,-1.6128,0.0324,0.9975,0.063,0.0808,-0.0063,0.1239,-0.1107,0.3972,-0.003,0.1131,0.9912,0.187,dws
1772192507,2.6921,-1.4971,-1.5968,0.032,0.9973,0.0663,0.0193,0.0464,0.0518,-0.1419,0.4269,0.0203,0.0513,1.0437,0.1181,dws
1772192507,2.7163,-1.4946,-1.5813,0.0314,0.9971,0.0694,-0.0291,-0.0173,0.0029,-0.1639,0.4463,0.0377,0.0023,0.9798,0.0723,dws
1772192507,2.7596,-1.4915,-1.5473,0.0295,0.9969,0.0735,-0.0487,0.0391,0.0279,-0.1997,0.5186,-0.0795,-0.0191,1.036,0.1015,dws
1772192507,2.7989,-1.4885,-1.5173,0.0276,0.9966,0.0774,-0.0048,0.0349,0.0658,-0.1643,0.3833,-0.0236,0.0229,1.0315,0.1432,dws
1772192507,2.8273,-1.485,-1.4955,0.0265,0.9963,0.0815,-0.0239,0.0494,0.1079,-0.2408,0.3698,-0.0532,0.0026,1.0457,0.1894,dws
1772192507,2.8746,-1.4797,-1.4578,0.024,0.9959,0.0877,-0.0388,0.0436,0.082,-0.3567,0.6319,-0.1198,-0.0148,1.0394,0.1697,dws
1772192507,2.9388,-1.4727,-1.4062,0.0197,0.9952,0.096,-0.0636,0.0145,0.0864,-0.4343,0.6378,-0.193,-0.0439,1.0096,0.1824,dws
1772192507,3.0083,-1.4644,-1.3503,0.0141,0.9943,0.1053,-0.0572,0.0143,0.0432,-0.5057,0.7453,-0.2231,-0.043,1.0086,0.1485,dws
1772192507,3.0705,-1.4534,-1.3021,0.0083,0.9931,0.1168,-0.008,0.0523,0.1119,-0.6589,0.6171,-0.2108,0.0003,1.0454,0.2287,dws
1772192507,3.1297,-1.4375,-1.2614,0.0016,0.9911,0.1329,0.0788,-0.0006,0.0518,-0.7305,0.8821,-0.2058,0.0804,0.9905,0.1847,dws
1772192507,-3.1105,-1.423,-1.2345,-0.0046,0.9891,0.1472,0.1515,-0.0458,-0.0274,-0.7326,0.7873,-0.1613,0.147,0.9433,0.1198,dws
1772192507,-3.0876,-1.4088,-1.2242,-0.0087,0.9869,0.1611,0.1087,-0.0593,-0.1086,-0.6136,0.5367,-0.049,0.1,0.9276,0.0524,dws
1772192507,-3.0766,-1.3997,-1.2237,-0.0111,0.9854,0.1699,0.0369,-0.05,-0.1723,-0.3278,0.5302,-0.0233,0.0258,0.9354,-0.0024,dws
1772192507,-3.0672,-1.3943,-1.2242,-0.013,0.9845,0.1751,-0.0049,-0.0572,-0.0844,-0.2201,0.4494,-0.0043,-0.0179,0.9273,0.0907,dws
1772192507,-3.06,-1.3909,-1.2243,-0.0146,0.9839,0.1783,-0.0152,-0.0797,-0.1145,-0.1043,0.3059,-0.025,-0.0298,0.9041,0.0638,dws
1772192507,-3.0545,-1.39,-1.2233,-0.0156,0.9837,0.1792,0.0048,-0.0743,-0.0767,0.004,0.1638,0.0002,-0.0108,0.9094,0.1024,dws
1772192507,-3.0554,-1.3903,-1.2267,-0.0155,0.9838,0.1788,-0.001,-0.0508,0.0081,0.0058,0.1103,0.0581,-0.0165,0.9329,0.187,dws
1772192507,-3.0618,-1.3904,-1.2347,-0.0143,0.9838,0.1789,-0.0085,-0.0421,0.0486,0.0117,0.0321,0.077,-0.0228,0.9417,0.2274,dws
1772192507,-3.0711,-1.3911,-1.2442,-0.0126,0.9839,0.1783,-0.0091,-0.0429,0.073,0.0363,-0.0386,0.1006,-0.0217,0.941,0.2513,dws
1772192507,-3.0827,-1.3917,-1.2545,-0.0105,0.984,0.1778,-0.0175,-0.0322,0.0943,0.0265,-0.1059,0.0787,-0.028,0.9518,0.2721,dws
1772192507,-3.0935,-1.3927,-1.2629,-0.0085,0.9842,0.1769,0.0174,-0.0327,0.066,0.0533,-0.1537,0.0773,0.0089,0.9515,0.243,dws
1772192507,-3.1061,-1.3931,-1.2729,-0.0063,0.9843,0.1766,0.0236,-0.0296,0.0636,-0.0058,-0.0942,0.1007,0.0173,0.9546,0.2402,dws
1772192507,-3.119,-1.3926,-1.2849,-0.004,0.9842,0.1772,-0.0156,-0.0026,0.0521,-0.041,-0.0019,0.1004,-0.0196,0.9816,0.2293,dws
1772192507,-3.1241,-1.3916,-1.2923,-0.0031,0.984,0.1782,-0.0411,-0.0169,0.0563,-0.0855,0.2155,0.0303,-0.0442,0.9671,0.2345,dws
1772192507,-3.1204,-1.3887,-1.2932,-0.0038,0.9835,0.181,-0.0084,0.0223,0.0597,-0.2057,0.2061,-0.0196,-0.0123,1.0057,0.2408,dws
1772192507,-3.1136,-1.3856,-1.2901,-0.0052,0.9829,0.184,-0.0002,-0.0492,-0.0106,-0.0436,0.1922,-0.036,-0.0053,0.9337,0.1735,dws
1772192507,-3.1043,-1.388,-1.2851,-0.0068,0.9833,0.1817,0.0028,-0.1451,0.0032,0.2643,0.2338,-0.0538,-0.004,0.8383,0.1849,dws
1772192507,-3.0921,-1.3951,-1.2781,-0.0087,0.9846,0.1745,0.0143,-0.1245,-0.0019,0.4498,0.2993,-0.0303,0.0056,0.8601,0.1727,dws
1772192507,-3.0853,-1.4049,-1.2779,-0.0093,0.9863,0.1649,-0.0233,-0.0644,-0.0088,0.5137,0.3833,0.0744,-0.0326,0.9218,0.1561,dws
1772192507,-3.0836,-1.4149,-1.2861,-0.009,0.9879,0.155,-0.1458,0.0009,0.0961,0.4694,0.5942,0.1098,-0.1548,0.9888,0.2511,dws
1772192507,-3.0812,-1.424,-1.2945,-0.0088,0.9892,0.146,-0.1604,0.0095,0.1646,0.4522,0.4427,0.0856,-0.1693,0.9988,0.3106,dws
1772192507,-3.0761,-1.4343,-1.296,-0.0089,0.9907,0.1358,-0.1087,-0.0021,0.0716,0.6033,0.2611,-0.0345,-0.1176,0.9886,0.2074,dws
1772192507,-3.0465,-1.4469,-1.2709,-0.0117,0.9923,0.123,0.0304,0.0793,-0.0448,0.6942,0.2147,-0.1328,0.0186,1.0716,0.0782,dws
1772192507,-3.0182,-1.4613,-1.2456,-0.0134,0.994,0.1084,0.1038,0.147,0.0445,0.6918,0.0435,-0.0215,0.0903,1.141,0.1529,dws
1772192507,-2.9986,-1.4715,-1.2267,-0.0141,0.9951,0.0981,0.0144,0.0618,0.3382,0.3267,0.1807,0.0382,0.0003,1.0569,0.4362,dws
1772192507,-2.9901,-1.4757,-1.2279,-0.0143,0.9955,0.0939,-0.027,-0.0059,0.2068,0.1399,0.6716,0.0091,-0.0413,0.9896,0.3007,dws
1772192507,-2.9823,-1.4783,-1.2302,-0.0147,0.9957,0.0912,0.0691,-0.0317,0.0194,0.1325,0.266,0.0632,0.0545,0.964,0.1106,dws
1772192507,-2.9912,-1.4824,-1.2407,-0.0132,0.9961,0.0873,0.117,-0.1246,-0.0402,0.2682,-0.0269,0.0821,0.1038,0.8715,0.0471,dws
1772192507,-3.0004,-1.4888,-1.2509,-0.0115,0.9966,0.0811,0.1457,-0.0637,-0.0464,0.3518,0.1753,0.101,0.1341,0.933,0.0346,dws
1772192507,-3.0006,-1.496,-1.2563,-0.0105,0.9972,0.074,0.1596,0.0604,0.0147,0.3493,0.3604,0.0534,0.1491,1.0576,0.0887,dws
1772192507,-3.0111,-1.5022,-1.2751,-0.0089,0.9976,0.068,0.1653,-0.0231,0.0423,0.2252,0.4176,0.1652,0.1563,0.9746,0.1103,dws
1772192507,-3.0371,-1.5062,-1.3097,-0.0067,0.9979,0.0642,0.0183,-0.0784,-0.0653,0.1738,0.4424,0.0933,0.0116,0.9195,-0.0011,dws
1772192507,-3.0383,-1.511,-1.319,-0.0062,0.9982,0.0594,0.0123,0.0266,-0.1888,0.3264,0.3733,0.016,0.0061,1.0248,-0.1294,dws
1772192507,-3.0251,-1.5189,-1.3119,-0.006,0.9987,0.0515,-0.0065,-0.0175,-0.1836,0.4363,0.2435,0.0234,-0.0125,0.9812,-0.1321,dws
1772192507,-2.9857,-1.5282,-1.2771,-0.0066,0.9991,0.042,-0.0399,0.0743,-0.1957,0.5164,0.245,-0.0557,-0.0465,1.0734,-0.1537,dws
1772192507,-2.8946,-1.5383,-1.1908,-0.0079,0.9995,0.0315,-0.0334,0.075,-0.1605,0.5288,0.2701,-0.0593,-0.0414,1.0745,-0.129,dws
1772192507,-2.7297,-1.5478,-1.0321,-0.0092,0.9997,0.0211,-0.0532,0.0922,-0.157,0.5051,0.3289,-0.0399,-0.0624,1.0919,-0.1359,dws
1772192508,-2.4424,-1.5555,-0.7508,-0.0098,0.9999,0.0117,-0.0773,0.0481,-0.1274,0.4146,0.2779,-0.0157,-0.0872,1.048,-0.1157,dws
1772192508,-1.855,-1.5598,-0.169,-0.0106,0.9999,0.0031,-0.0678,0.0076,-0.1442,0.4663,0.2979,-0.0496,-0.0784,1.0075,-0.1411,dws
1772192508,-1.0605,-1.5573,0.6199,-0.0118,0.9999,-0.0066,-0.0044,-0.0056,-0.0843,0.4799,0.2762,-0.0878,-0.0162,0.9944,-0.0909,dws
1772192508,-0.6845,-1.5504,0.9905,-0.0129,0.9998,-0.0158,0.0622,-0.0064,-0.0368,0.4696,0.2681,-0.0125,0.0493,0.9933,-0.0526,dws
1772192508,-0.4448,-1.5422,1.2242,-0.0123,0.9996,-0.0258,0.019,-0.0248,-0.0507,0.5157,0.3494,0.05,0.0067,0.9748,-0.0765,dws
1772192508,-0.2992,-1.5329,1.362,-0.0112,0.9993,-0.0362,-0.0347,-0.0614,0.0088,0.5174,0.4214,0.0188,-0.0459,0.9379,-0.0274,dws
1772192508,-0.224,-1.5237,1.4299,-0.0105,0.9989,-0.0459,0.0199,-0.0327,0.0681,0.4379,0.3209,0.0434,0.0095,0.9662,0.0222,dws
1772192508,-0.1537,-1.5165,1.4944,-0.0083,0.9985,-0.0536,0.0333,0.039,0.077,0.3327,0.2651,0.124,0.025,1.0375,0.0235,dws
1772192508,-0.1059,-1.5104,1.538,-0.0064,0.9982,-0.06,-0.0717,0.0586,0.035,0.3322,0.1884,0.033,-0.078,1.0568,-0.025,dws
1772192508,-0.0892,-1.5041,1.5505,-0.0059,0.9978,-0.0664,-0.0775,0.0306,0.0288,0.2934,0.2541,-0.0178,-0.0834,1.0284,-0.0376,dws
1772192508,-0.0874,-1.4998,1.5449,-0.0062,0.9975,-0.0707,-0.0824,0.0354,0.0865,0.118,0.4824,-0.0591,-0.0886,1.0329,0.0158,dws
1772192508,-0.0989,-1.499,1.5219,-0.0071,0.9974,-0.0713,-0.1011,0.0295,0.1341,-0.0337,0.6604,-0.1168,-0.1082,1.0269,0.0628,dws
1772192508,-0.1282,-1.4997,1.4782,-0.0091,0.9975,-0.0705,-0.0422,-0.0212,0.048,-0.0439,0.7447,-0.1869,-0.0513,0.9763,-0.0224,dws
1772192508,-0.1732,-1.4999,1.4185,-0.0122,0.9975,-0.0698,0.0644,-0.0072,-0.014,-0.0546,0.7581,-0.2092,0.0522,0.9903,-0.0838,dws
1772192508,-0.2043,-1.4998,1.3715,-0.0144,0.9975,-0.0694,0.0943,-0.0138,0.0064,0.0053,0.8345,-0.1001,0.0799,0.9837,-0.063,dws
1772192508,-0.2001,-1.4988,1.358,-0.0143,0.9974,-0.0705,-0.0104,-0.0139,-0.0112,0.0688,0.9412,-0.0604,-0.0247,0.9835,-0.0816,dws
1772192508,-0.203,-1.4967,1.3373,-0.0149,0.9973,-0.0725,-0.0871,0.0249,-0.0636,0.077,0.755,-0.1357,-0.102,1.0222,-0.1361,dws
1772192508,-0.2254,-1.4938,1.304,-0.0172,0.997,-0.075,-0.0678,-0.043,-0.0819,0.1766,0.3435,-0.1663,-0.085,0.954,-0.1569,dws
1772192508,-0.2468,-1.49,1.2779,-0.0197,0.9967,-0.0782,-0.0594,-0.0911,-0.1084,0.1279,0.1676,-0.0937,-0.0791,0.9056,-0.1866,dws
1772192508,-0.2487,-1.4868,1.2733,-0.0207,0.9965,-0.0814,-0.0338,-0.0391,-0.0904,0.1808,0.113,-0.0299,-0.0545,0.9574,-0.1718,dws
1772192508,-0.2409,-1.4837,1.2812,-0.0208,0.9962,-0.0845,0.0346,0.033,-0.0234,0.1147,-0.1057,0.0094,0.0138,1.0292,-0.1079,dws
1772192508,-0.2299,-1.4821,1.2935,-0.0202,0.9961,-0.0863,0.1067,-0.0281,-0.093,0.0752,-0.0049,0.0769,0.0865,0.968,-0.1793,dws
1772192508,-0.2031,-1.4811,1.3202,-0.0181,0.996,-0.0877,0.0483,-0.0463,-0.0663,0.0842,0.0056,0.1232,0.0303,0.9497,-0.154,dws
1772192508,-0.176,-1.4795,1.3477,-0.016,0.9958,-0.0898,-0.0229,-0.0055,-0.0324,0.1211,-0.0313,0.0896,-0.0389,0.9903,-0.1222,dws
1772192508,-0.1558,-1.4773,1.3685,-0.0145,0.9956,-0.0923,-0.0512,-0.0249,-0.042,0.1141,-0.0042,0.0718,-0.0657,0.9707,-0.1342,dws
1772192508,-0.136,-1.4756,1.3875,-0.0129,0.9955,-0.0942,-0.066,0.0098,-0.0166,0.0857,0.1028,0.0806,-0.0789,1.0053,-0.1108,dws
1772192508,-0.1174,-1.4743,1.4045,-0.0113,0.9953,-0.0957,-0.0523,0.0186,0.0285,0.0641,0.0225,0.0673,-0.0636,1.0139,-0.0672,dws
1772192508,-0.104,-1.473,1.4192,-0.0101,0.9952,-0.0972,-0.0108,-0.02,-0.0195,0.0979,-0.133,0.0679,-0.021,0.9752,-0.1167,dws
1772192508,-0.0906,-1.4703,1.4362,-0.0091,0.995,-0.0999,-0.0202,0.0087,0.0043,0.1756,-0.2064,0.0712,-0.0293,1.0037,-0.0956,dws
1772192508,-0.0795,-1.467,1.4507,-0.0082,0.9946,-0.1033,-0.0726,0.0117,0.0326,0.1653,-0.0909,0.0545,-0.0808,1.0063,-0.0707,dws
1772192508,-0.0683,-1.4642,1.463,-0.0073,0.9943,-0.1062,-0.0784,0.0003,0.0433,0.1306,-0.0164,0.0496,-0.0856,0.9946,-0.0629,dws
1772192508,-0.0587,-1.4617,1.4718,-0.0064,0.9941,-0.1087,-0.0649,0.0058,0.0632,0.1157,0.0845,0.0381,-0.0713,0.9999,-0.0455,dws
1772192508,-0.0478,-1.46,1.4808,-0.0053,0.9939,-0.1104,-0.058,0.0012,0.0844,0.0538,0.1028,0.0577,-0.0633,0.9951,-0.026,dws
1772192508,-0.0348,-1.4592,1.4917,-0.0039,0.9938,-0.1112,-0.0863,0.0012,0.0495,0.0473,0.0837,0.0561,-0.0901,0.995,-0.0617,dws
1772192508,-0.0287,-1.458,1.4977,-0.0032,0.9936,-0.1125,-0.1237,-0.0001,0.0858,0.067,-0.0727,0.0085,-0.127,0.9936,-0.0267,dws
1772192508,-0.0318,-1.4571,1.4964,-0.0036,0.9935,-0.1134,-0.1168,-0.0229,0.1595,-0.0023,-0.052,-0.0165,-0.1204,0.9707,0.0461,dws
1772192508,-0.0382,-1.4589,1.4899,-0.0043,0.9937,-0.1116,-0.1513,-0.0458,0.2004,-0.1657,0.0501,-0.0445,-0.1555,0.948,0.0889,dws
1772192508,-0.0483,-1.4628,1.4788,-0.0052,0.9942,-0.1077,-0.1516,-0.0721,0.1831,-0.226,-0.0054,-0.0565,-0.1568,0.922,0.0753,dws
1772192508,-0.0639,-1.4682,1.4648,-0.0065,0.9947,-0.1022,-0.1207,-0.0326,0.334,-0.3517,-0.1469,-0.067,-0.1272,0.9622,0.2319,dws
1772192508,-0.0942,-1.4785,1.4375,-0.0087,0.9957,-0.0917,-0.122,-0.0294,0.5059,-0.7388,-0.0958,-0.1126,-0.1307,0.9664,0.4141,dws
1772192508,-0.1445,-1.4951,1.385,-0.0109,0.9971,-0.0749,-0.0523,-0.0657,0.2698,-0.9041,0.3567,-0.1055,-0.0632,0.9314,0.1949,dws
1772192508,-0.1961,-1.5118,1.3228,-0.0115,0.9983,-0.0579,0.039,-0.1898,0.079,-0.8021,0.5794,-0.0175,0.0275,0.8084,0.0211,dws
1772192508,-0.2418,-1.5271,1.2654,-0.0105,0.999,-0.0424,0.0361,-0.2246,0.1801,-0.8401,0.611,0.0783,0.0257,0.7744,0.1377,dws
1772192508,-0.3735,-1.5478,1.1206,-0.0084,0.9997,-0.0214,-0.1007,-0.1986,0.3121,-1.3009,0.7425,0.0484,-0.1091,0.8011,0.2906,dws
1772192508,-2.0975,-1.5606,-0.6233,-0.0088,0.9999,0.0051,-0.1858,-0.1472,-0.0147,-1.3422,1.2215,-0.1158,-0.1946,0.8528,-0.0096,dws
1772192508,-2.7502,-1.5352,-1.3018,-0.0136,0.9994,0.0329,-0.2695,-0.1817,0.4223,-1.5132,1.2227,-0.2924,-0.2831,0.8176,0.4552,dws
1772192508,-2.8407,-1.505,-1.4144,-0.0195,0.9978,0.0628,0.0145,-0.2088,-0.0044,-1.471,0.8968,-0.1412,-0.005,0.789,0.0583,dws
1772192508,-2.9067,-1.4815,-1.4893,-0.0208,0.996,0.0867,-0.0762,-0.4085,-0.313,-1.0229,0.183,0.0422,-0.097,0.5875,-0.2263,dws
1772192508,-2.9586,-1.4607,-1.5501,-0.02,0.9939,0.1081,-0.1864,-0.4088,0.02,-1.1923,0.6707,0.0745,-0.2064,0.5851,0.128,dws
1772192508,-2.9705,-1.4324,-1.5775,-0.0235,0.9904,0.136,-0.4555,-0.2019,0.2994,-1.7461,0.8373,-0.3386,-0.479,0.7886,0.4353,dws
1772192509,-2.9249,-1.3885,-1.5476,-0.039,0.9834,0.1771,-0.561,-0.1008,0.6654,-2.4691,0.6586,-0.9315,-0.5999,0.8827,0.8425,dws
1772192509,-2.8772,-1.3312,-1.5131,-0.062,0.9714,0.2291,-0.0829,0.0053,0.326,-3.0124,0.7585,-1.0244,-0.1449,0.9768,0.5551,dws
1772192509,-2.8535,-1.263,-1.5053,-0.0861,0.953,0.2905,0.2506,0.0271,-0.0511,-3.3409,0.9062,-1.1582,0.1645,0.9801,0.2394,dws
1772192509,-2.8162,-1.2003,-1.4822,-0.1158,0.9321,0.3431,0.2904,0.1782,-0.5158,-2.3344,0.5087,-1.4356,0.1746,1.1103,-0.1727,dws
1772192509,-2.7782,-1.1562,-1.4438,-0.1432,0.9153,0.3765,0.2773,1.0218,-0.428,-1.4265,-0.1264,-1.3105,0.1341,1.937,-0.0515,dws
1772192509,-2.7529,-1.1256,-1.4206,-0.1632,0.9025,0.3985,-0.0221,1.0562,-0.4401,-1.1363,0.461,-0.8056,-0.1853,1.9587,-0.0415,dws
1772192509,-2.7391,-1.0989,-1.4078,-0.1781,0.8907,0.4182,-0.0465,0.5068,-0.2191,-0.9651,-0.1945,-0.7747,-0.2246,1.3976,0.1991,dws
1772192509,-2.7229,-1.0829,-1.385,-0.1906,0.8833,0.4282,0.4708,0.6237,-0.3729,-0.1864,-0.2531,-0.7471,0.2803,1.507,0.0554,dws
1772192509,-2.7062,-1.0786,-1.3636,-0.1993,0.8813,0.4284,0.6593,0.4276,-0.1489,0.2023,0.048,-0.3314,0.46,1.3089,0.2795,dws
1772192509,-2.6916,-1.085,-1.3515,-0.2031,0.8843,0.4204,0.5545,0.0262,-0.1729,0.6157,0.2589,0.1006,0.3515,0.9105,0.2475,dws
1772192509,-2.6844,-1.1025,-1.3481,-0.1992,0.8923,0.405,0.351,-0.1553,-0.2335,1.0297,0.2098,0.5375,0.1518,0.7371,0.1715,dws
1772192509,-2.6832,-1.1303,-1.3538,-0.1887,0.9045,0.3824,0.233,-0.2633,-0.2293,1.3439,0.4307,0.8986,0.0443,0.6413,0.1531,dws
1772192509,-2.6919,-1.1664,-1.3674,-0.171,0.9193,0.3544,0.1707,-0.382,-0.1949,1.6767,-0.2278,1.1931,-0.0004,0.5373,0.1595,dws
1772192509,-2.7203,-1.2095,-1.3883,-0.1446,0.9354,0.3226,0.1001,-0.3303,-0.0885,1.8846,-0.4987,1.3214,-0.0444,0.6051,0.2341,dws
1772192509,-2.7541,-1.2538,-1.415,-0.1178,0.9502,0.2886,-0.1073,-0.2272,-0.1294,1.8629,-0.4169,1.2053,-0.2251,0.723,0.1592,dws
1772192509,-2.7842,-1.2961,-1.4343,-0.0949,0.9625,0.2541,-0.2107,-0.216,-0.1691,1.9035,-0.8578,0.8402,-0.3056,0.7465,0.085,dws
1772192509,-2.8033,-1.3377,-1.4277,-0.0767,0.9729,0.2179,-0.1987,-0.2211,-0.0975,2.0984,-1.7511,0.4856,-0.2753,0.7518,0.1205,dws
1772192509,-2.8226,-1.3824,-1.4014,-0.0588,0.9823,0.1779,-0.0365,-0.1817,0.1075,2.3232,-2.6209,0.4405,-0.0953,0.8006,0.2854,dws
1772192509,-2.8332,-1.4287,-1.3596,-0.043,0.9899,0.1349,-0.0214,-0.1363,0.4046,2.243,-2.5168,0.3614,-0.0644,0.8537,0.5395,dws
1772192509,-2.8344,-1.4692,-1.3142,-0.0307,0.9948,0.0967,-0.1297,-0.0686,0.5661,1.775,-1.9514,0.2985,-0.1604,0.9262,0.6628,dws
1772192509,-2.7919,-1.4968,-1.2477,-0.0253,0.9973,0.0695,-0.162,-0.0375,0.6529,1.0239,-0.4899,0.0265,-0.1873,0.9598,0.7224,dws
1772192509,-2.6725,-1.5081,-1.1279,-0.0283,0.998,0.0559,0.0227,-0.1019,0.5629,0.3756,0.4144,-0.2758,-0.0056,0.8961,0.6188,dws
1772192509,-2.5655,-1.5062,-1.0346,-0.0352,0.9979,0.0541,0.3095,-0.3458,0.241,-0.2135,0.8466,-0.288,0.2743,0.6521,0.2951,dws
1772192509,-2.5534,-1.4991,-1.0368,-0.0398,0.9974,0.0596,0.189,-0.5381,-0.1895,-0.2533,0.5715,-0.1176,0.1493,0.4594,-0.1299,dws
1772192509,-2.4799,-1.5,-0.9655,-0.0435,0.9975,0.0558,-0.0073,-0.6801,-0.3251,0.6798,-0.4689,-0.2612,-0.0508,0.3174,-0.2693,dws
1772192509,-2.271,-1.5078,-0.743,-0.0481,0.998,0.0406,0.0378,-0.8291,0.0623,0.6771,-0.5828,-0.2128,-0.0103,0.1689,0.1029,dws
1772192509,-2.2457,-1.5094,-0.7064,-0.0479,0.9981,0.0383,0.128,-0.4382,0.134,-0.3848,-1.0356,0.2227,0.0801,0.56,0.1723,dws
1772192509,-2.423,-1.5075,-0.8508,-0.0416,0.998,0.0476,-0.2389,0.7584,-0.4973,-0.2174,-1.9389,0.1715,-0.2805,1.7564,-0.4497,dws
1772192509,-2.2367,-1.5167,-0.6291,-0.0425,0.9985,0.0334,0.1181,1.9833,-0.3665,1.5096,-0.9783,-0.3824,0.0756,2.9819,-0.3331,dws
1772192509,-2.0848,-1.5138,-0.4868,-0.0496,0.9984,0.028,-0.2504,0.7804,1.1391,-1.0776,1.1999,-0.1503,-0.3001,1.7788,1.1671,dws
1772192509,-2.311,-1.4952,-0.7334,-0.0558,0.9971,0.0509,-0.2819,0.2533,-0.3525,-1.0424,0.8379,-0.5161,-0.3377,1.2504,-0.3016,dws
1772192509,-2.2843,-1.4805,-0.7142,-0.0682,0.9959,0.059,-0.1758,0.6963,-0.5346,0.0893,0.2783,-0.5519,-0.244,1.6923,-0.4755,dws
1772192509,-2.2101,-1.4745,-0.6522,-0.0771,0.9954,0.0574,-0.2547,0.9664,0.1969,-0.256,0.7931,-0.2681,-0.3319,1.9618,0.2542,dws
1772192509,-2.2694,-1.4638,-0.7261,-0.0818,0.9943,0.0687,-0.2315,0.5771,0.4582,-0.7673,0.6095,-0.1573,-0.3133,1.5714,0.5269,dws
1772192509,-2.3139,-1.4553,-0.7795,-0.0849,0.9933,0.078,0.21,0.0423,-0.4265,-0.2756,0.202,-0.0372,0.1251,1.0357,-0.3485,dws
1772192509,-2.3399,-1.4557,-0.8043,-0.0826,0.9934,0.0799,0.3066,-0.3363,-0.4512,0.1,-0.2225,0.2624,0.224,0.6571,-0.3713,dws
1772192509,-2.3402,-1.4657,-0.7989,-0.0754,0.9945,0.073,0.1177,-0.5265,-0.4897,0.6727,-0.3562,0.3875,0.0423,0.468,-0.4167,dws
1772192509,-2.2591,-1.4839,-0.7109,-0.067,0.9962,0.0551,-0.0131,-0.472,-0.3449,1.1078,-0.288,0.4144,-0.0801,0.5242,-0.2897,dws
1772192509,-2.0816,-1.5032,-0.5264,-0.0589,0.9977,0.033,-0.124,-0.3351,-0.0386,1.1016,-0.3436,0.3633,-0.1829,0.6626,-0.0056,dws
1772192509,-1.8377,-1.5153,-0.2796,-0.0535,0.9985,0.0146,-0.283,-0.0382,0.4959,0.6975,0.1815,0.1791,-0.3364,0.9603,0.5105,dws
1772192509,-1.7254,-1.5185,-0.1769,-0.0516,0.9986,0.008,-0.1873,0.2788,0.7241,-0.1062,0.7463,0.0269,-0.2389,1.2775,0.7321,dws
1772192509,-1.8957,-1.5174,-0.3637,-0.0506,0.9986,0.017,0.1513,0.0525,0.5323,-0.8375,0.8365,0.1756,0.1007,1.0511,0.5493,dws
1772192509,-2.2336,-1.5141,-0.7172,-0.0447,0.9984,0.0349,0.2821,-0.2497,0.0309,-0.8994,0.7063,0.4222,0.2374,0.7487,0.0658,dws
1772192509,-2.52,-1.5086,-1.0162,-0.0362,0.9981,0.0505,-0.009,-0.3922,-0.023,-0.7819,0.5601,0.4575,-0.0452,0.6059,0.0275,dws
1772192509,-2.7213,-1.4981,-1.2306,-0.0297,0.9974,0.0663,-0.2779,-0.5096,0.1463,-0.8704,0.7315,0.2576,-0.3076,0.4878,0.2127,dws
1772192509,-2.8275,-1.4814,-1.3548,-0.0276,0.996,0.0849,-0.4049,-0.3893,0.1965,-1.058,1.0559,0.0741,-0.4324,0.6068,0.2814,dws
1772192509,-2.8837,-1.4581,-1.4315,-0.0287,0.9937,0.1087,-0.3398,-0.1214,0.3329,-1.4323,0.7768,0.043,-0.3685,0.8722,0.4416,dws
1772192509,-2.9341,-1.428,-1.4907,-0.0293,0.9898,0.1392,-0.2853,-0.0263,0.2719,-1.6714,0.1992,-0.017,-0.3146,0.9635,0.4112,dws
1772192509,-2.9664,-1.3895,-1.526,-0.0314,0.9836,0.1776,-0.3264,-0.1345,0.3498,-2.3146,0.1193,-0.2011,-0.3578,0.8491,0.5274,dws
1772192509,-2.9744,-1.3379,-1.5384,-0.0384,0.973,0.2275,-0.1509,-0.0914,0.3959,-2.7496,0.2866,-0.4163,-0.1893,0.8816,0.6234,dws
1772192509,-2.9596,-1.2792,-1.5278,-0.052,0.9578,0.2827,-0.0541,0.2061,0.2199,-3.041,0.0763,-0.9336,-0.1062,1.1639,0.5026,dws
1772192510,-2.9208,-1.2151,-1.4914,-0.0763,0.9374,0.3398,-0.0453,0.8983,-0.0441,-2.9022,0.6098,-1.392,-0.1216,1.8357,0.2957,dws
1772192510,-2.8819,-1.1546,-1.4592,-0.1038,0.9147,0.3907,0.1081,1.2998,-0.2798,-2.6905,0.2914,-1.204,0.0043,2.2145,0.1109,dws
1772192510,-2.8585,-1.1047,-1.4362,-0.1255,0.8933,0.4315,0.2012,0.7385,-0.5259,-1.8979,-0.1106,-1.1442,0.0756,1.6318,-0.0944,dws
1772192510,-2.8389,-1.0646,-1.4117,-0.1445,0.8746,0.4628,0.0499,0.3983,-0.143,-1.5778,-0.2187,-1.0938,-0.0947,1.2729,0.3198,dws
1772192510,-2.8176,-1.0356,-1.3818,-0.1623,0.8602,0.4835,0.1851,0.6205,-0.3053,-0.8184,-0.0508,-1.1972,0.0228,1.4806,0.1781,dws
1772192510,-2.7818,-1.0158,-1.3499,-0.1855,0.8499,0.4932,0.4398,0.4427,-0.31,-0.5279,0.7268,-0.9425,0.2543,1.2926,0.1832,dws
1772192510,-2.7522,-1.0036,-1.332,-0.204,0.8434,0.4971,0.4009,-0.1113,-0.2799,-0.2323,0.6294,-0.414,0.1969,0.7321,0.2172,dws
1772192510,-2.7364,-1.0015,-1.3264,-0.2125,0.8423,0.4954,0.2795,-0.3391,-0.382,0.1411,0.6252,0.0512,0.067,0.5032,0.1134,dws
1772192510,-2.7245,-1.0091,-1.3297,-0.2158,0.8463,0.487,0.3407,-0.4739,-0.4094,0.4888,0.8143,0.4098,0.1249,0.3724,0.0776,dws
1772192510,-2.7154,-1.0259,-1.3395,-0.2143,0.8552,0.472,0.4165,-0.4669,-0.3886,0.8482,0.9513,0.7401,0.2022,0.3882,0.0834,dws
1772192510,-2.7061,-1.0521,-1.3517,-0.2091,0.8685,0.4495,0.3594,-0.3568,-0.4175,1.2829,0.9795,0.9084,0.1503,0.5117,0.032,dws
1772192510,-2.6998,-1.0871,-1.3613,-0.1989,0.8853,0.4204,0.3134,-0.3708,-0.3863,1.6952,0.3814,1.0081,0.1145,0.5145,0.0341,dws
1772192510,-2.7082,-1.129,-1.3691,-0.1796,0.904,0.3881,0.2785,-0.3981,-0.2023,1.9457,-0.4651,1.0917,0.099,0.5059,0.1857,dws
1772192510,-2.7299,-1.1751,-1.377,-0.1543,0.9227,0.3533,0.1852,-0.3585,-0.1683,2.1539,-1.0345,1.124,0.031,0.5642,0.185,dws
1772192510,-2.7691,-1.2257,-1.3864,-0.1231,0.941,0.3151,0.0419,-0.2635,-0.1099,2.4224,-2.101,1.1138,-0.0812,0.6776,0.2052,dws
1772192510,-2.8266,-1.2805,-1.3935,-0.0887,0.9581,0.2722,-0.1238,-0.1535,-0.0631,2.6619,-2.8811,0.9484,-0.2125,0.8047,0.2091,dws
1772192510,-2.8845,-1.3355,-1.3955,-0.0593,0.9724,0.2255,-0.3697,-0.0204,0.0515,2.5561,-2.5527,0.6364,-0.429,0.9521,0.277,dws
1772192510,-2.9105,-1.3818,-1.3837,-0.043,0.9822,0.1829,-0.4616,0.0752,0.3267,1.9892,-1.1914,0.268,-0.5046,1.0574,0.5095,dws
1772192510,-2.8885,-1.4175,-1.3458,-0.0382,0.9883,0.1479,-0.4197,0.0394,0.3458,1.7219,-0.4776,-0.0557,-0.458,1.0277,0.4937,dws
1772192510,-2.7947,-1.4479,-1.2498,-0.0417,0.9925,0.1153,-0.2657,-0.1705,0.1407,1.5819,0.4188,-0.337,-0.3073,0.822,0.256,dws
1772192510,-2.5696,-1.4712,-1.0392,-0.0539,0.995,0.0836,-0.1528,-0.2474,-0.0648,1.5777,1.1917,-0.7182,-0.2066,0.7476,0.0189,dws
1772192510,-2.1864,-1.4829,-0.6816,-0.0717,0.9961,0.0507,0.0689,-0.2145,0.3857,1.4227,0.9322,-0.8497,-0.0028,0.7816,0.4364,dws
1772192510,-2.0045,-1.4769,-0.4967,-0.0851,0.9956,0.0394,0.6048,-0.1828,1.4797,-0.1138,-0.6646,-0.453,0.5197,0.8128,1.5191,dws
1772192510,-2.012,-1.476,-0.4904,-0.0856,0.9955,0.0404,0.6966,0.0994,-0.2928,0.309,-0.8917,0.3109,0.6111,1.0949,-0.2523,dws
1772192510,-1.99,-1.4883,-0.4396,-0.0753,0.9966,0.0335,0.1976,0.6989,-0.2737,0.3403,-1.8673,0.5081,0.1223,1.6955,-0.2402,dws
1772192510,-2.148,-1.4927,-0.576,-0.0654,0.997,0.0426,-0.0342,0.7672,0.2293,-0.995,-0.2686,0.4028,-0.0996,1.7641,0.2719,dws
1772192510,-2.3951,-1.4817,-0.824,-0.0604,0.996,0.0653,-0.3939,0.1314,0.2453,-1.0061,0.1022,0.036,-0.4543,1.1274,0.3106,dws
1772192510,-2.403,-1.473,-0.8411,-0.0657,0.9952,0.0722,-0.4045,-0.021,-0.6599,0.1171,0.5473,-0.4799,-0.4703,0.9742,-0.5877,dws
1772192510,-2.2882,-1.4712,-0.7277,-0.0749,0.995,0.0654,-0.2546,0.4409,-0.5132,0.6906,-0.1881,-0.3196,-0.3295,1.436,-0.4478,dws
1772192510,-2.1758,-1.4768,-0.611,-0.0772,0.9956,0.0534,-0.201,1.5981,0.5408,0.0313,0.0899,0.016,-0.2782,2.5937,0.5942,dws
1772192510,-2.2998,-1.464,-0.7499,-0.0795,0.9943,0.071,-0.4674,0.6517,0.8468,-1.4431,1.0442,-0.2198,-0.5469,1.646,0.9178,dws
1772192510,-2.3724,-1.4439,-0.8424,-0.088,0.992,0.0909,-0.0563,0.1807,-0.2024,-0.768,0.6617,-0.3878,-0.1443,1.1727,-0.1115,dws
1772192510,-2.4115,-1.4328,-0.883,-0.0917,0.9905,0.1025,0.3357,-0.0689,-0.0504,-0.4103,-0.3032,0.0191,0.2439,0.9216,0.0521,dws
1772192510,-2.4718,-1.4315,-0.9347,-0.0862,0.9903,0.1089,0.369,-0.3052,-0.3761,-0.1038,-0.6167,0.4013,0.2827,0.6851,-0.2672,dws
1772192510,-2.5342,-1.4412,-0.9853,-0.0738,0.9916,0.1061,0.252,-0.4608,-0.5718,0.4932,-0.5983,0.7111,0.1782,0.5308,-0.4656,dws
1772192510,-2.5775,-1.4619,-1.0154,-0.0581,0.9941,0.0919,0.0089,-0.5482,-0.4766,0.983,-0.8166,0.6801,-0.0492,0.4459,-0.3847,dws
1772192510,-2.5764,-1.4846,-1.001,-0.0461,0.9963,0.0727,-0.3259,-0.3876,-0.0059,0.8833,-0.2,0.3818,-0.372,0.6087,0.0668,dws
1772192510,-2.5314,-1.4927,-0.9687,-0.0447,0.9969,0.064,-0.6093,0.0291,0.7167,-0.1602,1.3738,-0.192,-0.6541,1.0261,0.7807,dws
1772192510,-2.5195,-1.4796,-0.9888,-0.053,0.9958,0.074,-0.2834,0.1479,0.9087,-0.8719,1.5276,-0.349,-0.3365,1.1438,0.9827,dws
1772192510,-2.5626,-1.4615,-1.0501,-0.0597,0.994,0.0913,0.3099,-0.1956,0.0735,-0.9365,0.2818,-0.141,0.2502,0.7984,0.1648,dws
1772192510,-2.6614,-1.4462,-1.1497,-0.0574,0.9923,0.1102,0.3354,-0.5765,-0.099,-1.054,-0.0711,0.3479,0.278,0.4158,0.0112,dws
1772192510,-2.7849,-1.4276,-1.2792,-0.0498,0.9898,0.1337,0.0465,-0.5402,0.3696,-1.3439,0.568,0.4373,-0.0033,0.4496,0.5033,dws
1772192510,-2.8683,-1.4045,-1.3765,-0.0447,0.9862,0.1594,-0.2072,-0.3232,0.2394,-1.2293,0.6866,0.3105,-0.2519,0.663,0.3988,dws
1772192510,-2.9186,-1.3825,-1.4424,-0.0414,0.9823,0.1825,-0.2936,-0.2198,-0.0138,-1.3723,0.6175,0.2808,-0.3349,0.7626,0.1688,dws
1772192510,-2.9722,-1.3488,-1.498,-0.0371,0.9755,0.2171,-0.2475,-0.2566,0.4302,-2.1628,-0.4924,0.0966,-0.2846,0.7189,0.6473,dws
1772192510,-2.9876,-1.3008,-1.5035,-0.0409,0.9638,0.2636,-0.4434,0.0882,0.2765,-2.618,-0.2727,-0.8265,-0.4843,1.052,0.54,dws
1772192510,-2.9353,-1.2405,-1.4516,-0.0664,0.946,0.3174,-0.3475,1.0468,0.4088,-2.8922,0.6089,-1.6304,-0.414,1.9927,0.7262,dws
1772192510,-2.8791,-1.1791,-1.4058,-0.0991,0.9243,0.3687,0.3181,1.4535,-0.1702,-2.7274,0.4061,-1.2821,0.219,2.3777,0.1985,dws
1772192510,-2.855,-1.1236,-1.3884,-0.1223,0.9016,0.4148,0.5864,0.6266,-0.3899,-2.3204,0.0974,-0.8701,0.4642,1.5282,0.0249,dws
1772192510,-2.8551,-1.0814,-1.384,-0.1328,0.8826,0.4509,0.3129,0.1961,-0.4542,-1.7097,-0.0929,-0.5797,0.18,1.0787,-0.0032,dws
1772192511,-2.8401,-1.0531,-1.3748,-0.1469,0.869,0.4725,-0.0415,0.2953,-0.4319,-0.8726,0.7678,-0.7357,-0.1885,1.1643,0.0406,dws
1772192511,-2.8007,-1.0368,-1.348,-0.1702,0.8608,0.4797,-0.0563,0.3873,-0.4198,-0.2374,0.9249,-1.0471,-0.2264,1.2481,0.0599,dws
1772192511,-2.7454,-1.0304,-1.3076,-0.1985,0.8575,0.4746,0.1856,0.162,-0.4574,0.3651,1.1498,-1.0573,-0.0129,1.0196,0.0172,dws
1772192511,-2.6887,-1.0339,-1.2679,-0.2238,0.8593,0.4599,0.4313,-0.1164,-0.378,0.773,1.0512,-0.611,0.2075,0.7429,0.0819,dws
1772192511,-2.6457,-1.0475,-1.2417,-0.2378,0.8662,0.4396,0.4859,-0.2962,-0.3168,0.9926,1.0659,0.0676,0.2481,0.57,0.1228,dws
1772192511,-2.6172,-1.0711,-1.2345,-0.2399,0.8777,0.4148,0.4588,-0.3945,-0.2793,1.2674,1.1306,0.7697,0.2189,0.4832,0.1355,dws
1772192511,-2.6029,-1.1048,-1.2424,-0.2305,0.8934,0.3857,0.3477,-0.4369,-0.2663,1.4399,0.9387,1.2129,0.1172,0.4565,0.1194,dws
1772192511,-2.6072,-1.1447,-1.2582,-0.2105,0.9106,0.3557,0.2493,-0.4528,-0.2152,1.6766,-0.1022,1.4146,0.0387,0.4578,0.1405,dws
1772192511,-2.6376,-1.1898,-1.2765,-0.1796,0.9283,0.3256,0.1539,-0.4554,-0.1363,1.874,-1.2348,1.4277,-0.0257,0.4729,0.1894,dws
1772192511,-2.6877,-1.2368,-1.2925,-0.1438,0.9447,0.2947,-0.0067,-0.3596,-0.1339,2.0861,-2.2501,1.2365,-0.1505,0.5851,0.1607,dws
1772192511,-2.7404,-1.2871,-1.2959,-0.1093,0.96,0.2577,-0.1187,-0.2226,-0.1091,2.5054,-2.5436,0.9741,-0.2281,0.7374,0.1486,dws
1772192511,-2.7752,-1.3429,-1.2827,-0.0809,0.9741,0.2109,-0.0838,-0.0343,0.0091,2.8162,-2.2171,0.7799,-0.1647,0.9398,0.22,dws
1772192511,-2.7647,-1.4017,-1.2323,-0.0619,0.9857,0.1565,-0.1039,0.1809,0.2028,2.9673,-1.7463,0.4394,-0.1658,1.1666,0.3593,dws
1772192511,-2.6983,-1.453,-1.133,-0.0504,0.9931,0.1062,-0.0934,0.1855,0.5027,2.2026,-1.4419,0.3407,-0.1438,1.1785,0.6089,dws
1772192511,-2.6142,-1.4839,-1.0263,-0.0437,0.9962,0.075,-0.1932,-0.0763,0.4563,1.0564,-0.6544,0.098,-0.2369,0.9199,0.5313,dws
1772192511,-2.5072,-1.4948,-0.9183,-0.045,0.9971,0.0612,-0.1929,-0.359,0.2382,0.4693,0.5574,-0.2204,-0.2379,0.6381,0.2994,dws
1772192511,-2.3328,-1.4981,-0.7635,-0.0525,0.9974,0.0501,0.1698,-0.4808,0.1709,0.594,1.1945,-0.3688,0.1172,0.5165,0.221,dws
1772192511,-2.1682,-1.5021,-0.6032,-0.0568,0.9976,0.0386,0.6293,-0.2407,0.7285,0.4138,-1.041,0.0277,0.5726,0.7569,0.7671,dws
1772192511,-2.2511,-1.5067,-0.6527,-0.0498,0.9979,0.0403,0.5601,0.351,0.5318,-0.2895,-1.3227,0.4728,0.5102,1.3489,0.5721,dws
1772192511,-2.4547,-1.5082,-0.853,-0.0397,0.998,0.0484,-0.3078,0.8443,-0.5813,-0.6557,0.2765,0.5316,-0.3475,1.8423,-0.5329,dws
1772192511,-2.6564,-1.5019,-1.0551,-0.0321,0.9976,0.0609,-0.2984,0.8517,0.1499,-0.6681,0.4454,0.1731,-0.3305,1.8494,0.2108,dws
1772192511,-2.761,-1.4765,-1.1906,-0.035,0.9956,0.0874,-0.7925,0.3062,0.6875,-1.9415,1.5711,-0.2123,-0.8275,1.3018,0.7749,dws
1772192511,-2.7367,-1.4481,-1.1789,-0.0482,0.9925,0.1125,-0.3142,0.1002,-0.7275,-0.6021,0.2942,-0.9417,-0.3624,1.0927,-0.6149,dws
1772192511,-2.6449,-1.4394,-1.0905,-0.0624,0.9914,0.1152,0.22,0.4794,-0.6037,0.1945,0.0337,-0.3441,0.1575,1.4708,-0.4885,dws
1772192511,-2.624,-1.4412,-1.0718,-0.0639,0.9916,0.1123,-0.0137,0.6115,0.0273,0.0666,0.2795,0.0996,-0.0776,1.6031,0.1396,dws
1772192511,-2.6224,-1.442,-1.0832,-0.0637,0.9917,0.1115,-0.432,0.3823,-0.0096,-0.025,1.0135,0.0062,-0.4958,1.3741,0.1019,dws
1772192511,-2.5908,-1.4422,-1.0719,-0.0671,0.9917,0.1093,-0.2624,0.1638,0.085,0.0657,0.8892,-0.0379,-0.3295,1.1555,0.1943,dws
1772192511,-2.5942,-1.44,-1.0858,-0.0679,0.9915,0.1114,0.1409,0.0536,0.5606,-0.4154,0.1498,0.0951,0.0731,1.0451,0.672,dws
1772192511,-2.6576,-1.4328,-1.1532,-0.064,0.9905,0.1218,0.3418,-0.1269,0.2479,-0.4844,0.1266,0.3813,0.2778,0.8636,0.3697,dws
1772192511,-2.753,-1.4314,-1.2464,-0.0526,0.9903,0.1286,0.2569,-0.2739,-0.1666,-0.1303,-0.3593,0.7196,0.2043,0.7164,-0.038,dws
1772192511,-2.8705,-1.4392,-1.3548,-0.0351,0.9914,0.1264,0.0219,-0.5104,-0.368,0.368,-0.7071,0.8911,-0.0132,0.481,-0.2416,dws
1772192511,-3.0025,-1.4516,-1.4719,-0.0165,0.9929,0.1178,-0.264,-0.5508,-0.0952,0.4284,-0.7083,0.7555,-0.2805,0.4421,0.0226,dws
1772192511,-3.0879,-1.4559,-1.5567,-0.0062,0.9934,0.1145,-0.6628,-0.3649,0.1597,-0.1503,0.8054,0.2056,-0.6689,0.6285,0.2743,dws
1772192511,-3.0564,-1.4445,-1.554,-0.0107,0.992,0.1255,-0.7175,-0.0243,0.5756,-0.9508,1.6925,-0.2381,-0.7282,0.9678,0.7011,dws
1772192511,-3.0063,-1.421,-1.5307,-0.0201,0.9888,0.1479,-0.0578,0.1012,0.5005,-1.3063,0.9706,-0.2797,-0.078,1.09,0.6484,dws
1772192511,-3.0015,-1.389,-1.5367,-0.0253,0.9835,0.179,0.2618,-0.2176,0.4924,-2.0315,0.1223,-0.0995,0.2365,0.7659,0.6715,dws
1772192511,-3.0174,-1.3388,-1.5568,-0.0285,0.9732,0.2282,0.1062,-0.4088,0.6552,-3.0007,0.4387,-0.2597,0.0777,0.5644,0.8834,dws
1772192511,-2.9926,-1.2709,-1.549,-0.0439,0.9554,0.2921,-0.1672,-0.0371,0.2632,-3.5887,1.2722,-0.8838,-0.2111,0.9182,0.5553,dws
1772192511,-2.9375,-1.2002,-1.5188,-0.0734,0.9321,0.3546,0.0587,0.3527,-0.3605,-3.1488,1.1804,-1.3076,-0.0147,1.2848,-0.0058,dws
1772192511,-2.8923,-1.1387,-1.4853,-0.1033,0.9081,0.4058,0.4537,0.5994,-0.5905,-2.4642,0.5826,-1.2504,0.3504,1.5075,-0.1847,dws
1772192511,-2.867,-1.0993,-1.4669,-0.1232,0.8909,0.4372,0.5462,0.8908,-0.824,-1.0907,0.1601,-0.5062,0.423,1.7817,-0.3868,dws
1772192511,-2.8525,-1.0738,-1.4561,-0.1359,0.879,0.457,-0.4849,0.3724,-0.0041,-1.3288,0.381,-0.7167,-0.6208,1.2515,0.4529,dws
1772192511,-2.8286,-1.0495,-1.4384,-0.1534,0.8672,0.4738,-0.2614,0.2882,-0.5955,-0.7244,0.3898,-0.8458,-0.4148,1.1554,-0.1217,dws
1772192511,-2.8034,-1.0361,-1.4132,-0.1691,0.8604,0.4807,0.3668,0.1774,-0.5219,-0.0893,0.1175,-0.7388,0.1977,1.0378,-0.0412,dws
1772192511,-2.7738,-1.0379,-1.3873,-0.1827,0.8613,0.4741,0.6257,-0.1161,-0.5712,0.6806,0.6661,-0.4279,0.443,0.7452,-0.0971,dws
1772192511,-2.7352,-1.0549,-1.3635,-0.195,0.8698,0.4532,0.5846,-0.3356,-0.4208,1.337,1.0976,-0.0175,0.3896,0.5342,0.0324,dws
1772192511,-2.6952,-1.0857,-1.3447,-0.2013,0.8846,0.4206,0.3654,-0.3088,-0.3967,1.8225,1.1383,0.4615,0.1641,0.5758,0.024,dws
1772192511,-2.6667,-1.1275,-1.331,-0.1961,0.9034,0.3814,0.2261,-0.26,-0.2853,2.2241,0.4692,0.8575,0.03,0.6434,0.0961,dws
1772192511,-2.6555,-1.1794,-1.3211,-0.1782,0.9244,0.3373,0.0549,-0.22,-0.1835,2.5714,-0.2988,1.1936,-0.1234,0.7044,0.1538,dws
1772192511,-2.6685,-1.2387,-1.3164,-0.1485,0.9454,0.2902,-0.1233,-0.1158,-0.0895,2.7742,-1.4507,1.3751,-0.2718,0.8296,0.2007,dws
1772192512,-2.6956,-1.3015,-1.3062,-0.1148,0.964,0.24,-0.2721,-0.0193,-0.1015,2.9901,-2.1319,1.1128,-0.3869,0.9446,0.1385,dws
1772192512,-2.7115,-1.3627,-1.2764,-0.0862,0.9784,0.1878,-0.2363,0.0963,0.0643,2.8559,-2.3543,0.8429,-0.3224,1.0747,0.2521,dws
1772192512,-2.679,-1.4185,-1.1976,-0.0677,0.9884,0.1358,-0.2443,0.2064,0.1395,2.8505,-1.9192,0.2419,-0.312,1.1949,0.2753,dws
1772192512,-2.4444,-1.4658,-0.9438,-0.0673,0.9945,0.0803,-0.0537,0.1456,0.2702,2.8142,0.2497,-0.3716,-0.1209,1.1401,0.3506,dws
1772192512,-2.0031,-1.4859,-0.5121,-0.077,0.9964,0.0355,0.0423,-0.0423,0.8941,1.4881,0.66,-0.4871,-0.0346,0.9541,0.9297,dws
1772192512,-1.7977,-1.4828,-0.3199,-0.0857,0.9961,0.0198,0.2379,-0.3362,0.8623,0.0054,0.7076,-0.3686,0.1522,0.66,0.8821,dws
1772192512,-1.9004,-1.4753,-0.4286,-0.0902,0.9954,0.0309,0.5013,-0.5629,0.6534,-1.043,-0.3412,-0.061,0.411,0.4326,0.6843,dws
1772192512,-2.0817,-1.4719,-0.5926,-0.0861,0.9951,0.0483,0.6225,-0.741,-0.1335,-0.3987,-1.3182,0.3889,0.5364,0.2541,-0.0853,dws
1772192512,-2.2318,-1.4766,-0.7139,-0.0742,0.9956,0.0577,-0.0276,-0.5766,-0.3023,-0.3661,-1.8756,0.5535,-0.1019,0.419,-0.2445,dws
1772192512,-2.3959,-1.4816,-0.8216,-0.0604,0.996,0.0654,-0.0881,0.9465,0.3005,0.1092,-3.6409,0.3675,-0.1485,1.9425,0.3659,dws
1772192512,-2.4335,-1.4757,-0.8534,-0.0617,0.9955,0.0721,-0.6348,2.1062,0.9586,-1.317,3.4095,-0.4511,-0.6965,3.1017,1.0307,dws
1772192512,-2.5292,-1.4408,-1.0029,-0.0745,0.9916,0.1061,-0.2996,0.1471,0.0012,-2.3003,1.3396,-0.4791,-0.3741,1.1386,0.1073,dws
1772192512,-2.601,-1.4008,-1.0826,-0.0871,0.9856,0.1451,0.2095,-0.059,-0.7929,-1.1774,-0.0494,-0.5575,0.1224,0.9266,-0.6479,dws
1772192512,-2.5993,-1.3915,-1.0769,-0.092,0.984,0.1528,0.2134,0.216,-0.8219,0.1679,-0.3681,0.0327,0.1213,1.2,-0.6692,dws
1772192512,-2.6284,-1.4005,-1.0965,-0.0832,0.9855,0.1477,0.0644,0.2602,-0.293,0.3957,-0.5774,0.6421,-0.0189,1.2457,-0.1453,dws
1772192512,-2.6772,-1.4133,-1.1414,-0.0702,0.9876,0.1402,-0.3909,0.2754,0.0889,0.3293,0.4101,0.5039,-0.4612,1.2631,0.2291,dws
1772192512,-2.6904,-1.4195,-1.1753,-0.0657,0.9886,0.1357,-0.3653,0.3976,0.2607,-0.0068,1.372,0.2744,-0.431,1.3862,0.3964,dws
1772192512,-2.6967,-1.4191,-1.2064,-0.065,0.9885,0.1364,0.0013,0.0928,0.3183,-0.2647,0.9433,0.1603,-0.0638,1.0813,0.4548,dws
1772192512,-2.7184,-1.4124,-1.2474,-0.0648,0.9875,0.1438,0.1161,-0.1259,0.4105,-0.5727,1.0228,0.2011,0.0513,0.8615,0.5543,dws
1772192512,-2.7598,-1.4025,-1.3087,-0.0624,0.9859,0.1555,0.078,-0.1975,0.1984,-0.6992,0.8573,0.2777,0.0156,0.7884,0.3539,dws
1772192512,-2.796,-1.3905,-1.3597,-0.0607,0.9838,0.1687,-0.2573,-0.3014,0.1184,-0.7952,0.6788,0.0914,-0.3181,0.6824,0.2871,dws
1772192512,-2.8014,-1.3673,-1.3906,-0.0674,0.9794,0.1905,-0.5555,-0.2178,0.7605,-1.7272,1.9272,-0.3686,-0.6229,0.7616,0.951,dws
1772192512,-2.7692,-1.3212,-1.3979,-0.0899,0.969,0.23,-0.6134,0.0477,0.7854,-2.6169,1.8435,-1.128,-0.7033,1.0167,1.0154,dws
1772192512,-2.7325,-1.257,-1.3908,-0.1228,0.9512,0.2832,-0.238,0.2385,0.3613,-3.2278,0.9811,-1.4398,-0.3608,1.1896,0.6445,dws
1772192512,-2.7203,-1.1845,-1.3929,-0.1541,0.9263,0.3438,0.2345,0.1708,-0.1515,-3.373,0.5905,-1.3163,0.0804,1.0971,0.1924,dws
1772192512,-2.7256,-1.1207,-1.4039,-0.1758,0.9004,0.3979,0.6024,-0.1985,-1.0498,-2.6564,-0.3667,-0.9182,0.4266,0.7019,-0.6518,dws
1772192512,-2.7482,-1.0698,-1.4118,-0.1841,0.8771,0.4436,0.405,-0.4316,-0.7646,-2.156,-1.0559,-0.7966,0.2209,0.4455,-0.321,dws
1772192512,-2.7656,-1.0329,-1.4117,-0.1881,0.8588,0.4766,0.2553,-0.1025,-0.6638,-1.2538,-0.3833,-0.6066,0.0672,0.7563,-0.1872,dws
1772192512,-2.7616,-1.0118,-1.4048,-0.1967,0.8478,0.4925,-0.2984,0.2353,-0.7219,-0.6349,-0.0436,-0.5664,-0.4951,1.0831,-0.2294,dws
1772192512,-2.74,-1.0005,-1.3848,-0.211,0.8417,0.497,-0.3044,0.3913,-0.6364,-0.0326,0.4358,-0.7955,-0.5154,1.2331,-0.1395,dws
1772192512,-2.7131,-0.9991,-1.3582,-0.2248,0.841,0.4922,0.3773,0.173,-0.5337,0.4665,-0.0138,-0.5324,0.1525,1.014,-0.0416,dws
1772192512,-2.6935,-1.0089,-1.335,-0.2308,0.8463,0.4802,0.6722,0.0153,-0.4139,0.974,0.1212,-0.1894,0.4413,0.8616,0.0662,dws
1772192512,-2.6694,-1.0317,-1.3133,-0.2335,0.8582,0.4572,0.641,-0.1149,-0.2988,1.6291,0.4758,0.2003,0.4074,0.7433,0.1584,dws
1772192512,-2.6376,-1.0716,-1.2901,-0.2312,0.878,0.4192,0.2332,-0.1496,-0.2083,2.4583,0.5299,0.6549,0.0021,0.7283,0.2109,dws
1772192512,-2.6116,-1.1283,-1.2635,-0.2165,0.9037,0.3694,-0.0482,0.1177,-0.0429,3.0116,-0.4132,1.147,-0.2647,1.0214,0.3266,dws
1772192512,-2.6144,-1.1931,-1.2473,-0.1855,0.9295,0.3187,-0.2479,0.1461,0.1357,2.8374,-1.1881,1.5417,-0.4334,1.0756,0.4544,dws
1772192512,-2.6385,-1.2533,-1.2476,-0.1505,0.95,0.2735,-0.243,0.0514,0.0988,2.4293,-1.1582,1.3008,-0.3935,1.0014,0.3723,dws
1772192512,-2.6475,-1.3027,-1.2335,-0.1256,0.9643,0.2332,-0.0486,0.0812,0.0581,2.218,-1.1824,0.7861,-0.1742,1.0455,0.2913,dws
1772192512,-2.6329,-1.3501,-1.188,-0.1066,0.9757,0.1912,0.1601,0.1445,0.0244,2.5195,-1.9059,0.5431,0.0535,1.1203,0.2156,dws
1772192512,-2.5762,-1.3993,-1.0825,-0.0914,0.9853,0.1441,0.1916,0.3721,0.3217,2.7176,-2.6745,0.2192,0.1001,1.3574,0.4658,dws
1772192512,-2.4244,-1.4438,-0.8812,-0.0832,0.992,0.0954,0.3661,0.5077,0.6279,2.5315,-1.9809,0.083,0.2829,1.4997,0.7233,dws
1772192512,-2.2175,-1.473,-0.6453,-0.0779,0.9952,0.0588,0.2189,0.1499,1.2194,1.2429,-0.6961,0.1667,0.141,1.1451,1.2782,dws
1772192512,-2.1557,-1.4783,-0.5853,-0.077,0.9957,0.051,-0.2164,-0.3533,1.3286,-0.5179,1.0136,-0.0287,-0.2934,0.6424,1.3796,dws
1772192512,-2.2949,-1.4639,-0.7553,-0.0799,0.9943,0.0707,-0.107,-0.7644,-0.0886,-1.185,1.5508,-0.0082,-0.1869,0.2299,-0.0179,dws
1772192512,-2.3795,-1.4541,-0.8584,-0.0804,0.9932,0.0842,-0.0121,-0.9386,-1.0668,-0.4211,-0.0845,0.0847,-0.0925,0.0546,-0.9825,dws
1772192512,-2.3953,-1.4571,-0.8441,-0.0771,0.9935,0.0833,0.0048,-0.5616,-0.3994,0.9379,-2.7537,0.0589,-0.0723,0.4319,-0.316,dws
1772192512,-2.399,-1.4733,-0.7999,-0.0659,0.9952,0.0717,0.0634,1.0552,0.7444,0.1057,-1.1949,0.5938,-0.0024,2.0504,0.8162,dws
1772192512,-2.4921,-1.463,-0.9066,-0.0651,0.9942,0.0857,-0.5926,0.9183,0.835,-1.5469,1.6975,-0.3554,-0.6577,1.9125,0.9206,dws
1772192512,-2.5784,-1.4327,-1.0135,-0.0735,0.9905,0.1164,0.1429,-0.179,-0.6868,-1.3217,0.231,-0.3714,0.0694,0.8115,-0.5703,dws
1772192512,-2.5747,-1.4211,-1.0043,-0.0801,0.9888,0.1258,0.1,0.4592,-0.4194,0.1602,-0.4137,-0.2913,0.0199,1.448,-0.2936,dws
1772192512,-2.5613,-1.4168,-0.9914,-0.0841,0.9882,0.1283,-0.2101,0.819,0.4665,-0.5963,0.5805,-0.1234,-0.2942,1.8072,0.5948,dws
1772192513,-2.5892,-1.3999,-1.0428,-0.0892,0.9854,0.1448,-0.1695,0.3904,-0.0464,-1.0418,1.6133,-0.1625,-0.2588,1.3759,0.0984,dws
1772192513,-2.5765,-1.3849,-1.0656,-0.099,0.9828,0.1561,-0.0689,-0.088,-0.0342,-0.4215,1.7158,-0.2717,-0.1679,0.8947,0.1219,dws
1772192513,-2.5636,-1.3781,-1.0777,-0.1046,0.9815,0.1604,0.1367,-0.0297,0.1076,-0.3799,0.5776,0.1941,0.0321,0.9518,0.268,dws
1772192513,-2.6228,-1.3769,-1.1372,-0.0956,0.9813,0.1674,0.3037,-0.1949,-0.3017,-0.2065,-0.4212,0.6513,0.2081,0.7863,-0.1344,dws
1772192513,-2.6953,-1.384,-1.1979,-0.0802,0.9826,0.1676,0.0557,-0.2463,-0.2338,0.2364,-0.8303,0.6375,-0.0245,0.7363,-0.0662,dws
1772192513,-2.7557,-1.3881,-1.2515,-0.0684,0.9834,0.1683,-0.2579,0.1106,0.6068,-0.4738,0.4666,0.4064,-0.3263,1.0939,0.7751,dws
1772192513,-2.7765,-1.3697,-1.3007,-0.0713,0.9798,0.1866,-0.8556,0.2239,0.6189,-1.5042,2.0051,-0.2827,-0.9269,1.2037,0.8055,dws
1772192513,-2.7521,-1.3287,-1.3158,-0.091,0.9708,0.2218,-0.6668,0.0879,0.8045,-2.4629,1.6348,-0.8757,-0.7578,1.0587,1.0262,dws
1772192513,-2.7425,-1.2714,-1.3308,-0.1146,0.9555,0.2718,0.2487,-0.0509,0.4429,-2.899,0.9081,-0.8636,0.134,0.9046,0.7147,dws
1772192513,-2.7552,-1.2132,-1.358,-0.1319,0.9367,0.3242,0.4877,-0.2432,-0.3091,-2.8556,0.6416,-0.5353,0.3558,0.6936,0.0151,dws
1772192513,-2.7746,-1.1565,-1.3933,-0.1444,0.9154,0.3758,0.3642,-0.388,-0.4857,-2.8921,0.4646,-0.4147,0.2198,0.5274,-0.1099,dws
1772192513,-2.7921,-1.1036,-1.4161,-0.1542,0.8928,0.4232,0.2565,-0.3657,-0.5916,-2.3384,-0.1194,-0.5422,0.1023,0.5272,-0.1685,dws
1772192513,-2.8018,-1.0639,-1.4215,-0.1618,0.8742,0.4577,0.2793,0.0524,-0.6442,-1.4798,-0.2895,-0.4847,0.1175,0.9267,-0.1865,dws
1772192513,-2.8052,-1.044,-1.4237,-0.166,0.8644,0.4746,0.0372,0.7959,-0.7406,-0.5074,0.2733,-0.2131,-0.1288,1.6603,-0.266,dws
1772192513,-2.7859,-1.0313,-1.4101,-0.1789,0.858,0.4816,-0.6885,0.4535,-0.2729,-0.4493,0.5953,-0.7771,-0.8675,1.3114,0.2087,dws
1772192513,-2.7516,-1.0221,-1.3845,-0.1983,0.8532,0.4824,0.1697,0.0041,-0.4751,0.0967,0.4984,-0.7551,-0.0286,0.8573,0.0073,dws
1772192513,-2.7199,-1.0249,-1.356,-0.2125,0.8547,0.4737,0.521,-0.0231,-0.4101,0.7683,0.3602,-0.4922,0.3085,0.8316,0.0636,dws
1772192513,-2.685,-1.0424,-1.3285,-0.2223,0.8636,0.4525,0.5701,0.1402,-0.2861,1.4106,0.7765,-0.0096,0.3478,1.0038,0.1665,dws
1772192513,-2.6491,-1.0738,-1.3074,-0.2254,0.879,0.4201,0.4892,0.1153,-0.2065,1.8226,0.8947,0.5419,0.2638,0.9943,0.2136,dws
1772192513,-2.6264,-1.1153,-1.297,-0.2167,0.898,0.3828,0.2599,-0.0505,-0.2153,2.0799,0.3354,1.0134,0.0432,0.8475,0.1675,dws
1772192513,-2.6294,-1.1662,-1.2926,-0.1929,0.9193,0.3431,0.1715,-0.1877,-0.0604,2.4563,-1.0649,1.3569,-0.0215,0.7316,0.2827,dws
1772192513,-2.6656,-1.2267,-1.2983,-0.1546,0.9414,0.2999,0.1152,-0.0426,0.0669,2.804,-1.951,1.6705,-0.0394,0.8988,0.3668,dws
1772192513,-2.7196,-1.2929,-1.3089,-0.1123,0.9616,0.2502,-0.3119,0.196,0.002,3.0139,-2.2755,1.4048,-0.4243,1.1577,0.2522,dws
1772192513,-2.738,-1.3543,-1.2871,-0.0844,0.9767,0.1976,-0.5242,0.1935,0.0747,2.779,-1.7264,0.5301,-0.6086,1.1702,0.2722,dws
1772192513,-2.6726,-1.4016,-1.1895,-0.0761,0.9857,0.1502,-0.332,0.0368,0.2576,2.3108,-1.3525,-0.094,-0.4081,1.0225,0.4079,dws
1772192513,-2.5485,-1.4357,-1.036,-0.0753,0.9909,0.1117,0.0485,-0.015,0.5337,1.8404,-1.4782,-0.192,-0.0268,0.9759,0.6454,dws
1772192513,-2.3982,-1.4578,-0.8567,-0.0763,0.9936,0.083,0.2666,-0.1875,0.6566,1.1716,-1.2067,-0.1653,0.1903,0.8061,0.7396,dws
1772192513,-2.3141,-1.4651,-0.7592,-0.0777,0.9944,0.0714,0.2756,-0.583,0.8807,0.0316,-0.0098,-0.0607,0.1979,0.4114,0.9521,dws
1772192513,-2.3587,-1.4587,-0.8126,-0.0789,0.9937,0.0793,0.3231,-0.9648,0.5519,-0.6887,0.61,0.0309,0.2442,0.0289,0.6312,dws
1772192513,-2.44,-1.4528,-0.8962,-0.076,0.9931,0.0899,0.3402,-1.0733,-0.2978,-0.3147,-0.6167,0.2526,0.2643,-0.0802,-0.2079,dws
1772192513,-2.5124,-1.4552,-0.9391,-0.0679,0.9933,0.0932,0.0496,-0.4881,-0.1153,0.3172,-2.1303,0.1845,-0.0182,0.5052,-0.0221,dws
1772192513,-2.5263,-1.4638,-0.9202,-0.0617,0.9943,0.0872,-0.1983,1.5203,0.0077,0.4115,-0.4532,0.1525,-0.26,2.5145,0.095,dws
1772192513,-2.5621,-1.4542,-0.982,-0.0637,0.9932,0.0974,-0.2868,1.5676,1.4616,-2.1301,2.2218,0.0997,-0.3505,2.5608,1.559,dws
1772192513,-2.7069,-1.412,-1.1483,-0.0666,0.9874,0.1435,-0.4811,0.0106,-1.0066,-1.9364,0.2434,-0.3887,-0.5478,0.9981,-0.8631,dws
1772192513,-2.6755,-1.394,-1.1228,-0.079,0.9844,0.1571,-0.235,-0.4284,-1.1132,0.4241,0.1733,-0.7212,-0.314,0.556,-0.9561,dws
1772192513,-2.5673,-1.4053,-1.0149,-0.0895,0.9863,0.1383,-0.0774,0.4007,-0.261,1.2022,0.1095,-0.2095,-0.1669,1.3871,-0.1227,dws
1772192513,-2.5166,-1.4165,-0.9699,-0.0899,0.9881,0.1246,-0.5411,1.7184,0.7975,-0.1507,0.5648,0.0089,-0.631,2.7065,0.9221,dws
1772192513,-2.5262,-1.4044,-0.9935,-0.0956,0.9862,0.1352,-0.4134,0.3885,0.2466,-0.7448,0.8295,-0.2348,-0.509,1.3747,0.3819,dws
1772192513,-2.5531,-1.3931,-1.0372,-0.0981,0.9843,0.147,0.3046,-0.1115,0.0523,-0.6925,0.4527,0.1762,0.2065,0.8728,0.1993,dws
1772192513,-2.6222,-1.3839,-1.1052,-0.0922,0.9826,0.1613,0.4107,0.0182,0.2959,-0.6758,-0.466,0.3854,0.3185,1.0007,0.4571,dws
1772192513,-2.7089,-1.3772,-1.1823,-0.0807,0.9813,0.1747,0.3966,0.08,0.0087,-0.5594,-0.5556,0.6165,0.3159,1.0613,0.1834,dws
1772192513,-2.7886,-1.378,-1.2511,-0.0662,0.9815,0.1798,0.0019,-0.2193,-0.4453,0.1469,-0.608,0.6015,-0.0644,0.7622,-0.2655,dws
1772192513,-2.8369,-1.383,-1.2963,-0.056,0.9824,0.1781,-0.452,-0.2353,0.2581,-0.2781,0.5321,0.302,-0.508,0.7471,0.4362,dws
1772192513,-2.8369,-1.3661,-1.3264,-0.061,0.9791,0.1939,-0.9883,-0.0421,0.5225,-1.4724,2.3615,-0.3167,-1.0492,0.937,0.7164,dws
1772192513,-2.7791,-1.3243,-1.3247,-0.0865,0.9698,0.2282,-0.841,0.0132,0.7576,-2.4776,2.8913,-1.009,-0.9275,0.983,0.9858,dws
1772192513,-2.7371,-1.2625,-1.3232,-0.1194,0.9529,0.2789,0.2085,-0.006,0.6108,-3.1429,1.0578,-1.3133,0.0891,0.9468,0.8897,dws
1772192513,-2.7372,-1.1967,-1.3337,-0.1438,0.9308,0.336,0.8034,-0.075,-0.3828,-2.9862,0.2476,-0.9271,0.6596,0.8559,-0.0468,dws
1772192513,-2.755,-1.1401,-1.3544,-0.1574,0.9087,0.3867,0.7467,-0.3988,-0.862,-2.6501,-0.2318,-0.5409,0.5893,0.5099,-0.4754,dws
1772192513,-2.7888,-1.0919,-1.3769,-0.1592,0.8875,0.4324,0.6355,-0.5341,-0.7876,-2.1459,-1.0331,-0.3343,0.4763,0.3533,-0.3552,dws
1772192513,-2.8137,-1.0608,-1.3868,-0.1572,0.8728,0.4622,0.3948,-0.1783,-0.8897,-0.9005,-0.3144,-0.2531,0.2375,0.6945,-0.4275,dws
1772192514,-2.8085,-1.0484,-1.3869,-0.1631,0.8666,0.4715,-0.0909,0.2489,-0.5124,-0.4002,0.5449,-0.185,-0.254,1.1155,-0.0409,dws
1772192514,-2.7896,-1.044,-1.3813,-0.1733,0.8644,0.4719,-0.2727,0.3428,-0.5285,0.054,0.7735,-0.223,-0.446,1.2072,-0.0566,dws
1772192514,-2.766,-1.0472,-1.3697,-0.1834,0.866,0.4652,0.1026,0.0983,-0.4175,0.424,0.4286,-0.133,-0.0808,0.9644,0.0477,dws
1772192514,-2.7549,-1.0591,-1.3607,-0.1846,0.8719,0.4535,0.4065,-0.1084,-0.4601,0.9051,-0.0863,0.1338,0.2219,0.7635,-0.0067,dws
1772192514,-2.7518,-1.084,-1.3511,-0.1778,0.8838,0.4327,0.4018,-0.0924,-0.3628,1.6174,-0.3465,0.43,0.2241,0.7915,0.0699,dws
1772192514,-2.7524,-1.1276,-1.343,-0.1627,0.9034,0.3968,0.2201,0.1952,-0.1417,2.6298,-0.4948,0.9058,0.0574,1.0985,0.2551,dws
1772192514,-2.7591,-1.1927,-1.3335,-0.1378,0.9294,0.3425,-0.1307,0.5809,0.1045,3.4886,-1.1182,1.1282,-0.2685,1.5102,0.447,dws
1772192514,-2.761,-1.2657,-1.3075,-0.1116,0.9538,0.2789,-0.3874,0.476,0.278,3.4887,-1.5301,0.7195,-0.4989,1.4298,0.5569,dws
1772192514,-2.7304,-1.3267,-1.2433,-0.0966,0.9704,0.2215,-0.435,0.0811,0.3519,2.8177,-1.4136,0.0152,-0.5316,1.0514,0.5733,dws
1772192514,-2.6323,-1.3686,-1.1274,-0.0979,0.9796,0.1754,-0.1022,-0.2198,0.2437,2.1807,-0.2812,-0.3322,-0.2001,0.7598,0.419,dws
1772192514,-2.513,-1.4005,-0.9948,-0.0996,0.9855,0.1371,0.2634,-0.2522,0.1226,1.7184,-0.9874,0.0233,0.1638,0.7333,0.2596,dws
1772192514,-2.4667,-1.4221,-0.9206,-0.0926,0.989,0.1157,0.1492,-0.522,0.7106,0.6885,-1.5497,0.2766,0.0566,0.4669,0.8263,dws
1772192514,-2.5027,-1.4277,-0.9303,-0.085,0.9898,0.1145,-0.1769,-0.7865,0.6345,-0.1274,-1.1152,0.1778,-0.2619,0.2033,0.7489,dws
1772192514,-2.5346,-1.4303,-0.9359,-0.0799,0.9901,0.115,-0.0384,-1.1018,-0.3436,0.5185,-1.6523,0.0306,-0.1183,-0.1117,-0.2286,dws
1772192514,-2.4825,-1.4453,-0.8417,-0.0767,0.9921,0.099,-0.0027,-1.0529,-0.3084,1.1509,-2.3033,-0.1517,-0.0794,-0.0608,-0.2094,dws
1772192514,-2.4145,-1.4555,-0.7339,-0.0765,0.9934,0.0859,0.2266,-0.3952,-0.0008,0.4691,-1.7113,-0.2143,0.1501,0.5982,0.0852,dws
1772192514,-2.3577,-1.4623,-0.6452,-0.0765,0.9941,0.0767,0.4556,2.1947,0.3154,0.7531,-0.832,0.014,0.3791,3.1888,0.392,dws
1772192514,-2.3949,-1.4531,-0.713,-0.0797,0.9931,0.0862,0.0577,1.1011,1.3081,-1.9644,2.7651,0.0631,-0.0221,2.0942,1.3943,dws
1772192514,-2.542,-1.4261,-0.8955,-0.0813,0.9896,0.119,0.0658,-0.0944,-1.0251,-1.0762,0.9994,-0.0771,-0.0155,0.8952,-0.9061,dws
1772192514,-2.5294,-1.4234,-0.898,-0.0844,0.9892,0.1202,-0.1246,0.0522,-0.4938,0.5335,0.4511,-0.0364,-0.209,1.0414,-0.3736,dws
1772192514,-2.4767,-1.4366,-0.8486,-0.0825,0.991,0.1053,-0.2759,1.1094,0.0591,0.6912,0.1133,0.2378,-0.3584,2.1004,0.1644,dws
1772192514,-2.471,-1.4359,-0.856,-0.0836,0.9909,0.1054,-0.8272,1.1934,0.9825,-0.8513,1.2631,-0.2636,-0.9108,2.1844,1.0878,dws
1772192514,-2.5008,-1.4102,-0.9206,-0.0956,0.9871,0.1282,-0.4632,0.2195,0.6367,-1.6559,1.9306,-0.3296,-0.5588,1.2067,0.7649,dws
1772192514,-2.5807,-1.3823,-1.0287,-0.0997,0.9823,0.1587,0.2547,0.1794,0.121,-1.5417,0.6762,0.1719,0.155,1.1617,0.2797,dws
1772192514,-2.6728,-1.3631,-1.1236,-0.0932,0.9785,0.184,0.4834,-0.1749,-0.3415,-1.0637,-0.4743,0.5171,0.3902,0.8036,-0.1575,dws
1772192514,-2.7713,-1.3493,-1.2099,-0.0795,0.9756,0.2048,0.1765,-0.4436,0.1425,-1.0627,-0.6446,0.537,0.097,0.532,0.3473,dws
1772192514,-2.8418,-1.3279,-1.2833,-0.071,0.9706,0.2298,-0.1854,-0.1996,0.4148,-1.5537,0.8471,0.326,-0.2565,0.7711,0.6446,dws
1772192514,-2.8615,-1.2936,-1.3295,-0.0757,0.9618,0.263,-0.5661,-0.0486,0.2577,-2.115,1.455,-0.2123,-0.6418,0.9132,0.5207,dws
1772192514,-2.8478,-1.2456,-1.3439,-0.0925,0.9476,0.3058,-0.3387,-0.1016,0.2934,-2.6344,1.2402,-0.6723,-0.4312,0.846,0.5992,dws
1772192514,-2.8341,-1.1884,-1.354,-0.1129,0.9278,0.3556,0.1124,-0.1486,-0.1981,-2.8743,1.0687,-0.673,-0.0006,0.7792,0.1576,dws
1772192514,-2.8236,-1.1315,-1.364,-0.133,0.9051,0.4039,0.3119,-0.1944,-0.5228,-2.6335,0.8547,-0.7088,0.1789,0.7106,-0.1189,dws
1772192514,-2.8171,-1.0806,-1.3673,-0.1501,0.8822,0.4462,0.425,-0.2356,-0.5459,-2.2817,0.1957,-0.8072,0.2749,0.6467,-0.0996,dws
1772192514,-2.8098,-1.0371,-1.3625,-0.1657,0.8609,0.481,0.408,0.0007,-0.4858,-1.777,0.0902,-0.6968,0.2423,0.8616,-0.0048,dws
1772192514,-2.8168,-1.0059,-1.3681,-0.1708,0.8446,0.5074,0.1806,0.427,-0.59,-1.2099,-0.125,-0.1159,0.0098,1.2716,-0.0826,dws
1772192514,-2.8216,-0.9854,-1.3747,-0.1738,0.8335,0.5245,-0.4436,0.4841,-0.4457,-0.9162,0.163,-0.2586,-0.6174,1.3176,0.0787,dws
1772192514,-2.8072,-0.972,-1.3667,-0.185,0.826,0.5324,-0.1598,0.3463,-0.5519,-0.2003,0.4428,-0.6233,-0.3448,1.1723,-0.0194,dws
1772192514,-2.7744,-0.9709,-1.3398,-0.2027,0.8254,0.5269,0.4331,0.1447,-0.442,0.6199,0.7068,-0.7611,0.2305,0.9701,0.085,dws
1772192514,-2.73,-0.985,-1.3088,-0.2212,0.8333,0.5067,0.6831,-0.0597,-0.2542,1.3281,1.2395,-0.2535,0.4619,0.7736,0.2525,dws
1772192514,-2.6825,-1.0142,-1.2865,-0.2341,0.849,0.4736,0.375,-0.1871,-0.2062,1.8054,1.5372,0.3985,0.1409,0.662,0.2675,dws
1772192514,-2.6432,-1.0549,-1.2723,-0.2358,0.8698,0.4333,0.1563,-0.0998,-0.1779,2.1625,0.9743,0.7908,-0.0795,0.77,0.2554,dws
1772192514,-2.624,-1.1036,-1.2566,-0.2228,0.8928,0.3914,0.0682,-0.1218,-0.0787,2.4238,-0.3205,0.9443,-0.1546,0.7711,0.3127,dws
1772192514,-2.6228,-1.1562,-1.2411,-0.1997,0.9153,0.3498,0.0909,-0.0317,-0.1526,2.5107,-0.8618,1.0966,-0.1089,0.8836,0.1972,dws
1772192514,-2.6258,-1.2119,-1.2232,-0.1733,0.9363,0.3056,0.0356,-0.0072,-0.2256,2.7113,-1.2079,1.0604,-0.1376,0.9291,0.08,dws
1772192514,-2.6301,-1.2711,-1.193,-0.1445,0.9554,0.2574,-0.0291,-0.01,-0.1631,2.9997,-2.1655,0.9995,-0.1736,0.9454,0.0943,dws
1772192514,-2.6183,-1.3356,-1.1281,-0.1164,0.9725,0.2018,-0.1316,0.1102,-0.0075,3.5006,-2.7092,0.6627,-0.248,1.0827,0.1943,dws
1772192514,-2.5099,-1.4015,-0.9712,-0.0995,0.9857,0.136,-0.0402,0.3557,0.3914,3.6292,-1.6643,0.3303,-0.1396,1.3414,0.5273,dws
1772192514,-2.2394,-1.4507,-0.6763,-0.094,0.9928,0.0743,-0.1064,0.5013,1.0004,2.6516,-0.5043,-0.0959,-0.2005,1.4941,1.0746,dws
1772192514,-1.9334,-1.461,-0.3756,-0.1025,0.994,0.0389,-0.2724,0.1508,0.9836,0.8862,1.2195,-0.6263,-0.3748,1.1448,1.0225,dws
1772192514,-1.7984,-1.4513,-0.2761,-0.1161,0.9929,0.0269,-0.0462,-0.2421,0.5767,0.0467,2.0428,-0.5975,-0.1624,0.7508,0.6036,dws
1772192514,-1.8069,-1.4422,-0.3117,-0.1247,0.9917,0.03,0.5793,-0.5673,0.5688,-0.7517,0.5136,-0.136,0.4546,0.4244,0.5988,dws
1772192515,-1.9394,-1.4419,-0.4442,-0.1199,0.9917,0.0463,0.7143,-0.763,-0.2451,-0.5331,-0.6606,0.5129,0.5945,0.2287,-0.1988,dws
1772192515,-1.9901,-1.4511,-0.4578,-0.109,0.9928,0.0486,0.1731,-0.9505,-0.2892,0.3421,-3.0246,0.5648,0.064,0.0424,-0.2406,dws
1772192515,-2.0736,-1.4646,-0.4759,-0.0929,0.9944,0.0511,0.1005,0.3582,0.6731,-0.2753,-2.49,0.7273,0.0076,1.3526,0.7242,dws
1772192515,-2.2196,-1.466,-0.6195,-0.0834,0.9945,0.0632,-0.6082,1.2777,-0.1719,-0.3583,1.6976,0.0056,-0.6916,2.2722,-0.1086,dws
1772192515,-2.2209,-1.4585,-0.6519,-0.0892,0.9937,0.0678,-0.3325,-0.0805,0.3129,-0.5406,0.9411,-0.1919,-0.4217,0.9132,0.3807,dws
1772192515,-2.2749,-1.4484,-0.7113,-0.093,0.9925,0.079,-0.2561,0.0293,-0.3803,-0.3329,-0.4064,-0.2188,-0.3491,1.0218,-0.3013,dws
1772192515,-2.2474,-1.4475,-0.6779,-0.0959,0.9924,0.077,-0.4014,1.4021,0.3604,-0.003,0.4076,-0.1278,-0.4974,2.3945,0.4374,dws
1772192515,-2.3138,-1.4299,-0.7675,-0.1034,0.9901,0.095,-0.391,0.7322,0.7607,-1.7302,1.3607,-0.4567,-0.4944,1.7223,0.8557,dws
1772192515,-2.3745,-1.4063,-0.8564,-0.1137,0.9865,0.1179,0.2565,0.0708,-0.4864,-0.7308,1.3769,-0.1163,0.1429,1.0573,-0.3685,dws
1772192515,-2.3879,-1.404,-0.8852,-0.1136,0.9861,0.1211,0.3564,-0.4484,-0.4448,0.2247,-0.0017,0.3126,0.2427,0.5377,-0.3237,dws
1772192515,-2.4054,-1.4173,-0.892,-0.1026,0.9882,0.1133,0.1987,-0.3005,-0.1861,0.5465,-0.9509,0.5815,0.0961,0.6878,-0.0728,dws
1772192515,-2.4517,-1.4293,-0.9226,-0.0898,0.99,0.1088,-0.0507,0.0419,0.4717,-0.1151,-0.3172,0.5419,-0.1404,1.0319,0.5805,dws
1772192515,-2.5378,-1.4246,-1.0218,-0.0827,0.9893,0.1199,-0.147,0.4576,0.6925,-1.0235,1.3019,0.2523,-0.2297,1.4469,0.8124,dws
1772192515,-2.5928,-1.4053,-1.1085,-0.0859,0.9863,0.1405,-0.4928,0.2475,0.2968,-1.2504,1.7338,-0.1341,-0.5788,1.2338,0.4373,dws
1772192515,-2.6186,-1.3762,-1.1703,-0.0966,0.9811,0.1676,-0.3729,-0.086,0.6846,-1.8794,1.6211,-0.3953,-0.4695,0.8951,0.8522,dws
1772192515,-2.65,-1.3353,-1.2265,-0.1101,0.9724,0.2057,-0.1238,-0.344,0.2098,-2.3008,0.7494,-0.5701,-0.234,0.6284,0.4155,dws
1772192515,-2.6795,-1.2843,-1.2703,-0.126,0.9592,0.253,-0.0362,-0.4227,0.0505,-2.7338,0.8499,-0.8029,-0.1622,0.5365,0.3034,dws
1772192515,-2.6878,-1.2253,-1.3022,-0.1485,0.9409,0.3044,0.1819,-0.2371,-0.0236,-2.9336,1.2114,-0.8426,0.0334,0.7038,0.2808,dws
1772192515,-2.6938,-1.1685,-1.3311,-0.1695,0.9202,0.3529,0.4244,-0.1522,-0.5261,-2.6169,0.6441,-0.745,0.2549,0.768,-0.1732,dws
1772192515,-2.709,-1.1182,-1.3496,-0.1834,0.8993,0.397,0.4796,-0.1341,-0.4631,-2.2347,-0.2976,-0.6968,0.2963,0.7652,-0.066,dws
1772192515,-2.7179,-1.081,-1.3563,-0.1934,0.8824,0.4289,0.4855,0.2174,-0.7891,-1.2621,0.2537,-0.5249,0.2921,1.0998,-0.3602,dws
1772192515,-2.7162,-1.0631,-1.3592,-0.2006,0.8739,0.4428,0.0643,0.5095,-0.5895,-0.6041,-0.0375,-0.2792,-0.1363,1.3834,-0.1467,dws
1772192515,-2.7125,-1.0486,-1.3563,-0.2075,0.8667,0.4536,-0.4668,0.3842,-0.2791,-0.6045,0.2666,-0.3495,-0.6743,1.2509,0.1745,dws
1772192515,-2.7039,-1.0405,-1.3525,-0.2144,0.8626,0.4581,0.2113,0.0487,-0.4619,-0.0322,0.166,-0.1571,-0.0031,0.9113,-0.0038,dws
1772192515,-2.6999,-1.0447,-1.3495,-0.2146,0.8648,0.4539,0.5567,-0.1404,-0.4513,0.5013,0.0753,0.2695,0.3421,0.7244,0.0026,dws
1772192515,-2.7019,-1.0641,-1.357,-0.2066,0.8743,0.4392,0.6042,-0.2018,-0.3382,1.0899,0.3743,0.8578,0.3976,0.6725,0.101,dws
1772192515,-2.7037,-1.0959,-1.3686,-0.1939,0.8894,0.4141,0.3423,-0.1329,-0.265,1.6058,0.3667,0.9254,0.1484,0.7564,0.1491,dws
1772192515,-2.7062,-1.1382,-1.371,-0.1768,0.9079,0.3801,0.2813,-0.1229,-0.1939,2.1901,-0.426,1.022,0.1045,0.785,0.1862,dws
1772192515,-2.724,-1.1922,-1.3719,-0.1499,0.9292,0.3379,0.095,-0.0678,-0.0934,2.7321,-1.2971,1.2578,-0.0549,0.8613,0.2445,dws
1772192515,-2.7607,-1.2564,-1.3735,-0.1149,0.951,0.2871,-0.2424,0.0462,0.0089,3.16,-2.2275,1.2679,-0.3573,0.9972,0.2959,dws
1772192515,-2.8032,-1.3258,-1.3686,-0.0805,0.9701,0.2288,-0.4673,0.1391,0.1931,3.3724,-2.2889,1.0213,-0.5478,1.1092,0.4219,dws
1772192515,-2.8079,-1.393,-1.3356,-0.0579,0.9842,0.1671,-0.4834,0.2342,0.2787,3.1439,-1.4437,0.538,-0.5413,1.2184,0.4458,dws
1772192515,-2.7376,-1.4464,-1.238,-0.0488,0.9923,0.1141,-0.3738,0.1406,0.3715,2.2971,-1.2691,0.0039,-0.4226,1.1329,0.4856,dws
1772192515,-2.5814,-1.4735,-1.0557,-0.0516,0.9953,0.0823,-0.2958,-0.1476,0.674,1.037,-0.9291,-0.5604,-0.3474,0.8477,0.7564,dws
1772192515,-2.3951,-1.4715,-0.8701,-0.0673,0.9951,0.0728,-0.0998,-0.4523,0.5194,0.0006,0.958,-0.8687,-0.1671,0.5427,0.5922,dws
1772192515,-2.3401,-1.4555,-0.8363,-0.0827,0.9934,0.08,0.4346,-0.7463,0.6086,-0.8218,0.6096,-0.4725,0.3519,0.247,0.6887,dws
1772192515,-2.4332,-1.4445,-0.9034,-0.082,0.992,0.0957,1.1398,-0.5408,0.643,-0.3567,-3.0884,0.2713,1.0579,0.4512,0.7387,dws
1772192515,-2.5631,-1.4483,-0.9807,-0.0668,0.9925,0.1023,0.4817,0.435,-0.0642,-0.1756,-1.6986,0.7008,0.4149,1.4275,0.038,dws
1772192515,-2.6823,-1.4458,-1.097,-0.0553,0.9922,0.1118,-0.3371,1.3165,0.1417,-0.7565,1.4368,0.2085,-0.3923,2.3087,0.2535,dws
1772192515,-2.7058,-1.427,-1.1534,-0.0605,0.9897,0.1299,-0.9056,0.5884,0.1381,-1.1596,1.5546,-0.3991,-0.9661,1.578,0.268,dws
1772192515,-2.6985,-1.4089,-1.1757,-0.0691,0.9869,0.1456,-0.3899,0.3738,-0.5103,-0.5291,1.1688,-0.0627,-0.459,1.3607,-0.3647,dws
1772192515,-2.7029,-1.4025,-1.1869,-0.0711,0.9859,0.1516,-0.1945,0.2063,-0.5599,-0.1524,-0.3984,-0.0442,-0.2656,1.1922,-0.4083,dws
1772192515,-2.7145,-1.4002,-1.1887,-0.0703,0.9855,0.1545,-0.2887,0.4269,0.1694,-0.2468,-0.0006,-0.1028,-0.359,1.4124,0.324,dws
1772192515,-2.714,-1.3885,-1.2017,-0.0752,0.9834,0.165,-0.1378,0.7223,0.5474,-0.7062,0.6811,-0.0371,-0.213,1.7057,0.7124,dws
1772192515,-2.7487,-1.3779,-1.2364,-0.0734,0.9815,0.1771,0.3177,0.1482,0.1458,-0.5943,-0.5607,0.1712,0.2443,1.1297,0.3229,dws
1772192515,-2.8095,-1.3695,-1.2909,-0.0652,0.9798,0.189,0.4579,-0.3234,0.1308,-0.5597,-0.058,0.5336,0.3927,0.6564,0.3198,dws
1772192515,-2.8755,-1.3605,-1.3638,-0.0549,0.978,0.2014,0.1664,-0.2773,0.3313,-0.8523,0.7357,0.6123,0.1116,0.7007,0.5327,dws
1772192515,-2.9208,-1.3366,-1.4368,-0.0508,0.9727,0.2265,-0.2258,-0.0694,0.6143,-1.9025,1.8677,0.2333,-0.2766,0.9033,0.8407,dws
1772192515,-2.902,-1.2923,-1.4625,-0.0653,0.9615,0.2671,-0.6575,-0.0092,0.3993,-2.467,2.3185,-0.5717,-0.7228,0.9522,0.6664,dws
1772192515,-2.8596,-1.2389,-1.4604,-0.0907,0.9454,0.313,-0.1654,-0.0842,-0.1449,-2.6492,1.8323,-0.8007,-0.2561,0.8613,0.168,dws
1772192516,-2.8303,-1.1839,-1.4628,-0.1156,0.9261,0.3592,0.2658,-0.4072,-0.4253,-2.655,1.2087,-0.7209,0.1502,0.5188,-0.0661,dws
1772192516,-2.8183,-1.1332,-1.4732,-0.1346,0.9058,0.4018,0.5481,-0.5883,-0.8585,-2.2576,0.7732,-0.4714,0.4135,0.3175,-0.4566,dws
1772192516,-2.8287,-1.0937,-1.484,-0.1413,0.8883,0.4369,0.5288,-0.693,-0.8268,-1.6476,-0.7179,-0.3408,0.3875,0.1954,-0.3899,dws
1772192516,-2.8454,-1.0702,-1.4899,-0.1401,0.8773,0.459,0.4165,-0.3012,-0.7705,-0.6782,-0.1478,-0.091,0.2764,0.5761,-0.3115,dws
1772192516,-2.8361,-1.0648,-1.4885,-0.1458,0.8747,0.4622,-0.1365,0.3508,-0.5917,0.0366,0.7207,-0.2164,-0.2823,1.2255,-0.1295,dws
1772192516,-2.8166,-1.0639,-1.4788,-0.155,0.8742,0.4601,-0.3031,0.6756,-0.3184,0.0238,0.4879,-0.2023,-0.4581,1.5499,0.1417,dws
1772192516,-2.7998,-1.0678,-1.4711,-0.1616,0.8761,0.4542,0.1539,0.1758,-0.3977,0.5577,0.4982,-0.0157,-0.0077,1.0519,0.0565,dws
1772192516,-2.7831,-1.085,-1.4621,-0.1638,0.8843,0.4372,0.3873,0.0798,-0.3814,1.2606,0.46,0.2382,0.2235,0.9641,0.0558,dws
1772192516,-2.7681,-1.12,-1.4549,-0.159,0.9001,0.4056,0.4804,0.1651,-0.3267,2.1266,0.3346,0.7787,0.3214,1.0652,0.0789,dws
1772192516,-2.7689,-1.1742,-1.4581,-0.1407,0.9224,0.3598,0.2764,0.2732,-0.1874,2.8855,-0.2344,1.2626,0.1358,1.1955,0.1724,dws
1772192516,-2.7863,-1.242,-1.46,-0.1123,0.9464,0.3027,-0.1795,0.437,-0.0407,3.4204,-1.2621,1.1086,-0.2918,1.3834,0.262,dws
1772192516,-2.7702,-1.3144,-1.4126,-0.092,0.9673,0.2363,-0.5952,0.3037,0.0157,3.8352,-1.707,0.2014,-0.6873,1.271,0.2521,dws
1772192516,-2.6646,-1.3841,-1.2728,-0.0852,0.9826,0.1649,-0.4102,-0.0862,0.1444,3.7541,-1.4083,0.0394,-0.4954,0.8964,0.3093,dws
1772192516,-2.4523,-1.4432,-1.0328,-0.0809,0.9919,0.0982,-0.2839,-0.3863,0.2033,3.0308,-0.9945,0.006,-0.3648,0.6055,0.3015,dws
1772192516,-2.19,-1.4716,-0.7453,-0.0807,0.9951,0.0575,-0.2108,-0.5919,0.6849,1.2586,-1.5604,-0.1353,-0.2914,0.4032,0.7424,dws
1772192516,-2.1131,-1.4741,-0.6329,-0.0827,0.9953,0.0498,-0.184,-1.0879,0.9133,-0.3216,-2.0245,-0.1662,-0.2667,-0.0926,0.9632,dws
1772192516,-2.3496,-1.459,-0.8191,-0.0794,0.9938,0.0784,0.2935,-0.976,1.5363,-1.4164,-2.9467,0.0731,0.2141,0.0178,1.6147,dws
1772192516,-2.3631,-1.4606,-0.785,-0.0772,0.9939,0.0783,0.6162,-0.5194,-0.0251,1.0655,-1.0563,-0.2537,0.539,0.4746,0.0533,dws
1772192516,-2.3073,-1.4632,-0.7032,-0.0795,0.9942,0.0721,0.0838,0.5098,-0.3635,-0.0303,-1.8983,-0.0951,0.0043,1.504,-0.2914,dws
1772192516,-2.3955,-1.461,-0.7788,-0.0744,0.994,0.0805,0.4052,1.9895,0.1834,-0.486,1.1257,0.4612,0.3309,2.9835,0.2639,dws
1772192516,-2.4867,-1.4468,-0.9285,-0.0753,0.9923,0.0981,-0.9292,0.956,0.7274,-1.8155,3.3733,-0.1578,-1.0045,1.9483,0.8255,dws
1772192516,-2.5719,-1.4141,-1.0696,-0.0841,0.9878,0.1314,-0.0553,0.0559,-0.5896,-1.6161,1.809,0.0801,-0.1395,1.0437,-0.4582,dws
1772192516,-2.6242,-1.399,-1.1257,-0.0846,0.9853,0.1486,-0.073,0.6681,-0.3652,-0.3808,-1.2909,0.0443,-0.1575,1.6534,-0.2166,dws
1772192516,-2.6937,-1.3942,-1.1664,-0.0761,0.9844,0.1584,-0.1321,0.7184,0.1174,-0.4667,-1.0684,0.3222,-0.2082,1.7028,0.2758,dws
1772192516,-2.7604,-1.3815,-1.2334,-0.07,0.9821,0.1746,-0.3049,0.2735,0.6335,-1.29,0.5968,0.2657,-0.3749,1.2556,0.8082,dws
1772192516,-2.8172,-1.3561,-1.3045,-0.0679,0.977,0.2019,-0.1863,0.1052,0.0136,-1.5056,0.6939,0.1538,-0.2542,1.0822,0.2155,dws
1772192516,-2.8372,-1.3212,-1.3453,-0.074,0.969,0.2356,-0.2121,0.0025,0.7543,-2.2416,1.419,-0.2974,-0.2861,0.9716,0.99,dws
1772192516,-2.8316,-1.27,-1.3687,-0.0904,0.9551,0.2822,0.057,0.0625,0.2604,-2.743,1.2561,-0.6345,-0.0334,1.0176,0.5426,dws
1772192516,-2.8201,-1.2112,-1.3823,-0.1112,0.9361,0.3338,0.2194,0.0339,-0.0849,-2.9446,1.3366,-0.7374,0.1082,0.97,0.249,dws
1772192516,-2.8057,-1.1529,-1.3972,-0.1337,0.914,0.3831,0.3356,-0.2023,-0.5373,-2.7195,1.3721,-0.6244,0.2018,0.7116,-0.1541,dws
1772192516,-2.7979,-1.1015,-1.4114,-0.1524,0.8919,0.4258,0.4489,-0.4644,-0.7203,-2.3908,0.5642,-0.5305,0.2965,0.4275,-0.2944,dws
1772192516,-2.8049,-1.0588,-1.4222,-0.1618,0.8718,0.4624,0.465,-0.4683,-0.8368,-1.6904,-0.2285,-0.4209,0.3031,0.4035,-0.3745,dws
1772192516,-2.8052,-1.035,-1.4203,-0.1685,0.8599,0.4819,0.1281,-0.3235,-0.8641,-0.5914,0.3026,-0.4958,-0.0405,0.5363,-0.3822,dws
1772192516,-2.775,-1.025,-1.4016,-0.1861,0.8547,0.4846,-0.3485,0.0302,-0.5089,-0.1178,0.8698,-0.7193,-0.5345,0.8849,-0.0243,dws
1772192516,-2.749,-1.0195,-1.3839,-0.2004,0.8519,0.4839,-0.1203,0.2443,-0.3501,-0.0118,0.2949,-0.2825,-0.3207,1.0962,0.1338,dws
1772192516,-2.7433,-1.0213,-1.377,-0.2025,0.8528,0.4814,0.1421,0.1239,-0.3703,0.3086,-0.3052,-0.0106,-0.0604,0.9767,0.1111,dws
1772192516,-2.7442,-1.0316,-1.3706,-0.1987,0.8581,0.4735,0.4475,0.1399,-0.3621,0.8444,-0.1527,0.0864,0.2488,0.998,0.1114,dws
1772192516,-2.7337,-1.0568,-1.3593,-0.195,0.8708,0.4514,0.7644,0.2914,-0.2633,1.7445,0.0998,0.4214,0.5694,1.1622,0.188,dws
1772192516,-2.7203,-1.1021,-1.3453,-0.1847,0.8921,0.4123,0.5415,0.1978,-0.1002,2.6476,-0.002,0.8381,0.3568,1.0899,0.312,dws
1772192516,-2.7119,-1.1635,-1.3349,-0.165,0.9182,0.3601,0.1875,0.2818,-0.0115,3.1001,-0.1478,1.297,0.0225,1.2,0.3486,dws
1772192516,-2.7155,-1.2341,-1.3319,-0.1366,0.9438,0.3008,-0.2101,0.2819,0.0912,3.4361,-0.5016,1.4801,-0.3467,1.2258,0.392,dws
1772192516,-2.7084,-1.3089,-1.3105,-0.1087,0.9659,0.235,-0.52,0.2657,0.148,3.5624,-0.7969,1.0078,-0.6286,1.2316,0.383,dws
1772192516,-2.6412,-1.3774,-1.2299,-0.0922,0.9814,0.1686,-0.3862,0.2562,0.1917,3.4271,-0.3366,0.4552,-0.4784,1.2376,0.3602,dws
1772192516,-2.4317,-1.4341,-1.0133,-0.0888,0.9907,0.1034,-0.2239,0.1678,0.1427,3.2046,-0.0188,-0.1197,-0.3127,1.1585,0.2461,dws
1772192516,-2.0241,-1.4663,-0.6068,-0.0938,0.9945,0.0457,0.0475,0.0586,0.3577,2.3901,0.1334,-0.2383,-0.0462,1.0531,0.4034,dws
1772192516,-1.695,-1.4736,-0.2678,-0.0963,0.9953,0.012,-0.1512,-0.2107,0.4404,1.1889,-0.7309,-0.0594,-0.2475,0.7846,0.4525,dws
1772192516,-1.5346,-1.4723,-0.1004,-0.0983,0.9952,-0.0036,-0.2489,-0.7129,0.5914,0.4972,0.38,-0.0953,-0.3471,0.2822,0.5879,dws
1772192516,-1.4967,-1.4721,-0.0793,-0.0983,0.9951,-0.0073,0.2327,-1.1742,0.8614,-0.1809,0.7329,0.1008,0.1345,-0.1791,0.8541,dws
1772192516,-1.5031,-1.4748,-0.0778,-0.0957,0.9954,-0.0065,0.3857,-1.1804,0.2942,0.1377,-1.5143,0.0736,0.29,-0.185,0.2877,dws
1772192516,-1.5405,-1.4769,-0.0799,-0.0937,0.9956,-0.0028,-0.0219,-0.4776,-0.1293,0.1334,-1.9696,0.0204,-0.1156,0.518,-0.1322,dws
1772192516,-1.5157,-1.4731,-0.0254,-0.0974,0.9952,-0.0054,-0.3305,1.2903,-0.2617,0.327,0.0111,-0.3139,-0.4278,2.2856,-0.267,dws
1772192517,-1.4063,-1.4711,0.0412,-0.0982,0.995,-0.0163,-0.2603,1.9624,0.6918,-0.3524,3.1477,0.1183,-0.3585,2.9574,0.6755,dws
1772192517,-1.6084,-1.4745,-0.1862,-0.0961,0.9954,0.0036,-0.0426,0.2617,-0.0857,-1.2802,-0.3903,0.0316,-0.1387,1.2571,-0.0821,dws
1772192517,-1.8225,-1.4687,-0.3823,-0.0987,0.9948,0.0254,-0.0567,0.0067,-0.602,-0.4727,-1.4409,-0.2735,-0.1554,1.0015,-0.5766,dws
1772192517,-1.8423,-1.4656,-0.3725,-0.1012,0.9945,0.0282,0.085,0.393,-0.5996,0.5656,-1.4174,0.1014,-0.0162,1.3875,-0.5714,dws
1772192517,-1.679,-1.4799,-0.1856,-0.0902,0.9959,0.0098,0.2046,0.6262,-0.3924,1.265,-0.6382,0.7751,0.1144,1.6221,-0.3826,dws
1772192517,-1.4496,-1.4961,0.0502,-0.0741,0.9972,-0.009,-0.2204,0.3447,0.3262,0.5851,-0.2632,0.862,-0.2944,1.3419,0.3172,dws
1772192517,-1.2265,-1.5091,0.2802,-0.0581,0.9981,-0.0208,-0.3276,0.1735,-0.0873,0.8818,-0.2629,0.7035,-0.3856,1.1716,-0.1081,dws
1772192517,-0.8016,-1.5091,0.7114,-0.0443,0.9981,-0.0429,-0.2059,0.4524,-0.0409,1.1902,-0.3331,0.7461,-0.2502,1.4505,-0.0838,dws
1772192517,-0.4448,-1.5007,1.0776,-0.0301,0.9975,-0.0633,-0.192,0.419,0.4624,0.8566,-0.5176,0.7009,-0.2222,1.4166,0.3992,dws
1772192517,-0.2354,-1.4944,1.2978,-0.0178,0.9971,-0.0742,-0.2734,0.2734,0.5724,0.2672,-0.4617,0.6204,-0.2912,1.2705,0.4982,dws
1772192517,-0.0976,-1.4954,1.4439,-0.0073,0.9972,-0.075,-0.3639,0.0467,0.5088,-0.1615,-0.287,0.4836,-0.3712,1.0439,0.4338,dws
1772192517,0.0179,-1.5076,1.5614,0.0011,0.998,-0.0631,-0.3107,-0.2237,0.9747,-1.1468,0.0336,0.4104,-0.3095,0.7743,0.9115,dws
1772192517,0.2492,-1.5383,1.7884,0.008,0.9995,-0.0314,-0.2411,-0.3054,0.8896,-1.9095,0.4561,0.2421,-0.233,0.6941,0.8582,dws
1772192517,2.158,-1.5562,-2.5933,0.0122,0.9999,0.0081,-0.0977,-0.298,0.1155,-1.9614,0.2055,0.2132,-0.0855,0.7019,0.1236,dws
1772192517,2.8118,-1.5199,-1.9409,0.0165,0.9987,0.0481,0.0294,-0.5038,0.0714,-2.1622,0.0305,0.187,0.0458,0.4949,0.1195,dws
1772192517,2.961,-1.4739,-1.7908,0.0174,0.9953,0.0952,-0.0423,-0.5976,0.2399,-2.4815,-0.0387,-0.0868,-0.0249,0.3977,0.3351,dws
1772192517,3.0303,-1.4262,-1.7218,0.016,0.9896,0.1432,0.1446,-0.6436,-0.0862,-2.4084,0.149,0.0248,0.1606,0.346,0.057,dws
1772192517,3.0464,-1.3789,-1.7133,0.0181,0.9817,0.1898,0.4595,-0.7929,-0.1616,-2.3269,0.6355,0.291,0.4776,0.1888,0.0282,dws
1772192517,3.0644,-1.3301,-1.7112,0.0184,0.9712,0.2376,0.3714,-0.6741,-0.0459,-2.5687,1.0747,0.0002,0.3898,0.2971,0.1917,dws
1772192517,3.1283,-1.2788,-1.6731,0.0038,0.9577,0.2878,-0.0426,-0.0822,-0.1119,-2.4068,1.614,-0.7966,-0.0387,0.8755,0.176,dws
1772192517,-3.0536,-1.2397,-1.6031,-0.0286,0.9457,0.3238,-0.2333,0.8851,-0.4784,-1.1673,1.5348,-1.2047,-0.2619,1.8308,-0.1546,dws
1772192517,-2.9931,-1.2221,-1.5587,-0.0506,0.9398,0.338,-0.2434,3.1016,-0.923,-0.8183,0.6587,-0.7075,-0.294,4.0414,-0.5851,dws
1772192517,-2.9054,-1.1952,-1.4903,-0.0858,0.9303,0.3566,-1.148,0.7043,-0.053,-1.0435,1.708,-2.1852,-1.2338,1.6346,0.3036,dws
1772192517,-2.7611,-1.1704,-1.3705,-0.1447,0.9209,0.3619,0.0651,0.9779,-0.1759,0.0454,1.2943,-2.5614,-0.0796,1.8988,0.186,dws
1772192517,-2.6654,-1.1569,-1.2699,-0.1844,0.9156,0.3574,0.7995,1.2644,0.3746,0.3621,-0.8119,-1.6119,0.6152,2.18,0.732,dws
1772192517,-2.6078,-1.1559,-1.1936,-0.2051,0.9152,0.347,0.5532,0.8626,0.1126,1.1147,-0.1717,-1.2091,0.3481,1.7778,0.4596,dws
1772192517,-2.5277,-1.1672,-1.1087,-0.2262,0.9196,0.3211,0.2969,0.1852,-0.1101,1.5007,0.224,-1.0776,0.0706,1.1048,0.211,dws
1772192517,-2.4493,-1.18,-1.029,-0.2432,0.9246,0.2933,0.3924,-0.1025,-0.2024,1.414,0.2369,-0.5307,0.1493,0.8221,0.0909,dws
1772192517,-2.3934,-1.1975,-0.9695,-0.2481,0.9311,0.2673,0.4758,-0.3371,-0.254,1.3491,-0.2247,-0.0134,0.2277,0.594,0.0134,dws
1772192517,-2.3597,-1.2196,-0.9272,-0.2424,0.9389,0.2441,0.531,-0.5879,-0.2427,1.3602,-0.3122,0.436,0.2885,0.3511,0.0014,dws
1772192517,-2.3338,-1.2474,-0.8899,-0.2297,0.9482,0.2196,0.5521,-0.7012,-0.304,1.4946,-0.6606,0.7034,0.3225,0.247,-0.0844,dws
1772192517,-2.3193,-1.2807,-0.8531,-0.2096,0.9582,0.1947,0.4783,-0.7854,-0.1428,1.5927,-1.499,0.9258,0.2687,0.1729,0.0519,dws
1772192517,-2.3199,-1.3164,-0.8115,-0.1843,0.9678,0.1714,0.187,-0.7986,0.2086,1.6263,-2.4787,0.8612,0.0027,0.1692,0.3799,dws
1772192517,-2.3052,-1.3448,-0.7535,-0.1663,0.9746,0.1502,-0.263,-0.5541,0.3714,1.2144,-1.3754,0.2631,-0.4294,0.4205,0.5216,dws
1772192517,-2.2491,-1.3577,-0.6915,-0.1647,0.9774,0.1327,-0.6121,-0.2739,0.4992,0.6661,1.0107,-0.1844,-0.7767,0.7035,0.6319,dws
1772192517,-2.1725,-1.358,-0.648,-0.1741,0.9774,0.1196,-0.6457,-0.0907,0.6424,0.0111,1.7977,-0.1876,-0.8198,0.8868,0.762,dws
1772192517,-2.1863,-1.3477,-0.6789,-0.1806,0.9752,0.1277,-0.2781,-0.1426,0.7712,-1.0904,-0.3139,-0.3825,-0.4587,0.8327,0.8989,dws
1772192517,-2.2606,-1.3249,-0.7373,-0.1878,0.9699,0.1549,0.2365,0.6003,0.1662,-1.2248,-1.2169,-0.5706,0.0488,1.5702,0.3211,dws
1772192517,-2.2992,-1.3078,-0.7591,-0.194,0.9656,0.1731,0.4497,2.0207,-0.0484,-0.4493,0.2792,-0.3936,0.2557,2.9863,0.1247,dws
1772192517,-2.3043,-1.2876,-0.7963,-0.2076,0.9602,0.1871,0.2401,0.0134,-0.407,-1.6463,2.1115,-0.2591,0.0325,0.9736,-0.2199,dws
1772192517,-2.346,-1.267,-0.8722,-0.2137,0.9542,0.2094,0.8101,-0.413,-0.55,-1.0503,0.8011,0.2282,0.5964,0.5412,-0.3406,dws
1772192517,-2.3893,-1.2647,-0.9263,-0.2059,0.9535,0.22,0.7331,-0.1171,-1.2988,-0.4835,-0.0459,0.8249,0.5272,0.8364,-1.0788,dws
1772192517,-2.4757,-1.275,-0.9943,-0.1801,0.9566,0.2293,0.511,0.5507,-0.8959,0.2394,-1.8895,1.284,0.3309,1.5073,-0.6667,dws
1772192517,-2.5455,-1.3039,-1.0258,-0.1481,0.9646,0.2183,0.303,0.6706,-0.6896,1.3833,-1.8459,1.1076,0.1549,1.6351,-0.4713,dws
1772192517,-2.5685,-1.3381,-1.0203,-0.1251,0.973,0.1938,-0.2722,0.3512,-0.3431,1.5048,-0.9808,0.6023,-0.3972,1.3242,-0.1493,dws
1772192517,-2.5453,-1.3682,-0.9841,-0.113,0.9795,0.1665,-0.1511,0.2651,-0.1635,1.4418,-0.2146,0.5416,-0.2641,1.2446,0.0029,dws
1772192517,-2.4981,-1.3949,-0.9327,-0.105,0.9846,0.14,-0.1532,-0.2453,-0.2838,1.3602,-0.3985,0.2736,-0.2581,0.7393,-0.1438,dws
1772192517,-2.4208,-1.4227,-0.8338,-0.0974,0.9891,0.1108,-0.0905,-0.2668,-0.2333,1.7609,-1.5265,0.2528,-0.1879,0.7222,-0.1225,dws
1772192517,-2.3059,-1.4531,-0.6852,-0.0871,0.9931,0.0788,-0.1582,-0.1436,-0.1845,1.7194,-1.5406,0.503,-0.2453,0.8494,-0.1058,dws
1772192517,-2.1487,-1.481,-0.5019,-0.0751,0.996,0.049,-0.2436,-0.1532,-0.0029,1.6144,-1.0587,0.5035,-0.3187,0.8428,0.0461,dws
1772192518,-1.8499,-1.502,-0.1846,-0.0661,0.9976,0.0189,-0.1142,-0.1716,0.1374,1.399,-0.3623,0.3303,-0.1803,0.826,0.1563,dws
1772192518,-1.4146,-1.5092,0.2465,-0.0608,0.9981,-0.0096,0.1478,-0.2512,0.3194,1.4702,0.5694,0.1439,0.087,0.7469,0.3098,dws
1772192518,-0.963,-1.5045,0.6965,-0.0544,0.9978,-0.0378,0.3603,0.0799,0.571,1.1029,-0.3202,0.5734,0.3059,1.0777,0.5332,dws
1772192518,-0.7002,-1.507,0.9651,-0.0411,0.998,-0.0487,0.1892,0.3271,0.4685,0.1975,0.0597,0.773,0.1481,1.325,0.4197,dws
1772192518,-0.4455,-1.5138,1.2158,-0.0246,0.9984,-0.0514,0.0471,0.2666,0.2723,0.0219,0.1879,0.8071,0.0226,1.265,0.2209,dws
1772192518,-0.2228,-1.5222,1.4398,-0.0107,0.9988,-0.0473,-0.3217,-0.2292,0.3407,-0.4605,-0.2992,0.5255,-0.3324,0.7696,0.2933,dws
1772192518,-0.1697,-1.5348,1.504,-0.0061,0.9994,-0.0354,-0.4041,-0.1164,-0.0367,-0.6392,-0.7091,-0.0214,-0.4102,0.883,-0.0722,dws
1772192518,-0.4401,-1.5448,1.2455,-0.0111,0.9997,-0.0235,-0.2466,0.1137,-0.1752,-0.5763,-0.431,-0.423,-0.2576,1.1133,-0.1987,dws
1772192518,-1.1004,-1.5459,0.5866,-0.0222,0.9997,-0.0113,-0.0475,0.214,-0.1758,-0.6669,0.3608,-0.6329,-0.0697,1.2137,-0.1871,dws
1772192518,-1.6241,-1.5358,0.0448,-0.035,0.9994,0.0019,0.1357,0.0598,-0.2387,-0.7217,1.3757,-0.656,0.1007,1.0592,-0.2368,dws
1772192518,-1.8559,-1.5222,-0.2186,-0.0466,0.9988,0.0137,0.2964,0.0186,-0.3772,-0.4727,1.6533,-0.4219,0.2498,1.0174,-0.3635,dws
1772192518,-1.8344,-1.5175,-0.2251,-0.0514,0.9986,0.0139,0.4422,-0.0418,-0.4589,0.2775,0.9781,-0.0238,0.3907,0.9568,-0.445,dws
1772192518,-1.6675,-1.5214,-0.0684,-0.0492,0.9988,0.0048,0.3099,-0.1317,-0.2876,0.5006,0.1607,0.2357,0.2608,0.8671,-0.2829,dws
1772192518,-1.4621,-1.5276,0.1388,-0.0429,0.9991,-0.0047,0.2245,-0.1661,-0.0918,0.4756,-0.3067,0.3337,0.1816,0.833,-0.0965,dws
1772192518,-1.2105,-1.5317,0.3977,-0.0366,0.9992,-0.0138,0.1578,-0.0606,-0.0313,0.4239,-0.3012,0.293,0.1212,0.9386,-0.0451,dws
1772192518,-0.949,-1.533,0.6619,-0.0307,0.9993,-0.022,0.1364,-0.0059,-0.0375,0.3965,0.0264,0.2769,0.1057,0.9934,-0.0595,dws
1772192518,-0.6911,-1.5311,0.92,-0.0253,0.9992,-0.0306,0.0971,0.0415,0.0144,0.4527,-0.0897,0.2481,0.0718,1.0407,-0.0162,dws
1772192518,-0.4682,-1.5253,1.1465,-0.0205,0.999,-0.0406,0.0189,-0.024,0.043,0.5188,-0.2366,0.2097,-0.0016,0.975,0.0024,dws
1772192518,-0.3494,-1.5187,1.2684,-0.0178,0.9986,-0.0489,0.0377,0.1487,0.0973,0.317,-0.0068,0.1482,0.0199,1.1473,0.0484,dws
1772192518,-0.2553,-1.5173,1.3599,-0.0135,0.9986,-0.0517,0.0037,0.0833,0.151,-0.088,0.1752,0.1877,-0.0098,1.0819,0.0993,dws
1772192518,-0.2078,-1.522,1.4048,-0.0101,0.9988,-0.0477,-0.0154,-0.0856,0.067,-0.249,0.1323,0.1392,-0.0254,0.9132,0.0193,dws
1772192518,-0.1684,-1.5258,1.4415,-0.0075,0.999,-0.0443,0.0581,0.0417,-0.0793,-0.0819,0.1623,0.1306,0.0506,1.0407,-0.1236,dws
1772192518,-0.103,-1.5266,1.5034,-0.0045,0.999,-0.044,0.085,-0.0049,-0.1009,0.025,0.171,0.1633,0.0805,0.9941,-0.1448,dws
1772192518,0.0027,-1.5253,1.6061,0.0001,0.999,-0.0455,0.0758,-0.0813,-0.0906,0.1111,0.1572,0.2525,0.0759,0.9177,-0.136,dws
1772192518,0.0914,-1.5223,1.6917,0.0044,0.9988,-0.0482,0.0603,-0.0249,-0.0823,0.1507,0.1304,0.1841,0.0647,0.9739,-0.1306,dws
1772192518,0.1501,-1.5186,1.7493,0.0078,0.9986,-0.0516,0.0963,-0.0746,-0.0449,0.1991,-0.0045,0.1456,0.1041,0.9241,-0.0964,dws
1772192518,0.195,-1.5133,1.7948,0.0111,0.9983,-0.0564,0.095,-0.0194,0.0038,0.249,-0.0322,0.1807,0.1062,0.9789,-0.0526,dws
1772192518,0.2356,-1.5079,1.8356,0.0147,0.998,-0.0611,0.054,-0.0611,0.05,0.2138,0.0221,0.1754,0.0686,0.9369,-0.0111,dws
1772192518,0.288,-1.5018,1.8863,0.0196,0.9976,-0.0661,0.0589,-0.0693,0.0331,0.3011,0.2013,0.2873,0.0785,0.9283,-0.033,dws
1772192518,0.3389,-1.4941,1.9298,0.0255,0.9971,-0.0722,0.0174,0.0391,0.0266,0.3122,0.5418,0.2176,0.0428,1.0361,-0.0456,dws
1772192518,0.3549,-1.4873,1.9344,0.029,0.9965,-0.0782,-0.0236,0.1256,0.0567,0.314,0.5125,0.0388,0.0054,1.1222,-0.0215,dws
1772192518,0.3345,-1.4811,1.907,0.0294,0.996,-0.0846,-0.0136,-0.0049,0.0872,0.3237,0.1936,-0.0624,0.0158,0.9911,0.0026,dws
1772192518,0.3073,-1.4777,1.8774,0.0281,0.9957,-0.0886,0.0321,0.0825,0.1617,0.0315,0.0777,-0.0567,0.0602,1.0782,0.0731,dws
1772192518,0.335,-1.4805,1.9023,0.0297,0.9959,-0.0852,0.139,-0.1574,0.1464,-0.3574,0.2768,0.1835,0.1687,0.8385,0.0612,dws
1772192518,0.4345,-1.4863,1.9932,0.0355,0.9964,-0.0766,0.0954,-0.0935,-0.0055,-0.4681,0.5755,0.32,0.1309,0.9029,-0.082,dws
1772192518,0.57,-1.4915,2.1181,0.0427,0.9969,-0.0666,0.0083,0.0052,-0.0426,-0.4584,0.4674,0.2879,0.0511,1.0021,-0.1093,dws
1772192518,0.6725,-1.4942,2.2147,0.0476,0.9971,-0.0598,0.0111,0.0623,-0.1177,-0.1832,0.1652,0.1609,0.0587,1.0593,-0.1775,dws
1772192518,0.7084,-1.4945,2.249,0.0496,0.9971,-0.0579,0.0239,-0.0828,-0.1504,-0.0691,0.0405,0.0109,0.0735,0.9143,-0.2083,dws
1772192518,0.7536,-1.4979,2.2943,0.0498,0.9973,-0.0531,0.0552,-0.1262,-0.1199,-0.4167,-0.0618,0.068,0.105,0.8712,-0.173,dws
1772192518,0.8594,-1.5014,2.4061,0.0525,0.9976,-0.0453,0.0413,0.1486,-0.0929,-0.3768,-0.5714,0.1878,0.0938,1.1461,-0.1381,dws
1772192518,0.939,-1.5025,2.5018,0.0551,0.9977,-0.0403,-0.0148,0.0755,-0.0306,-0.1955,-0.9567,0.1226,0.0403,1.0732,-0.071,dws
1772192518,0.9624,-1.502,2.5425,0.0564,0.9976,-0.0393,-0.039,-0.1147,-0.0539,-0.0967,-0.5433,0.0721,0.0174,0.8829,-0.0932,dws
1772192518,1.0239,-1.5039,2.6068,0.0571,0.9978,-0.0347,-0.0799,0.1022,0.0284,-0.3588,0.1212,-0.003,-0.0228,1.1,-0.0063,dws
1772192518,1.1243,-1.5076,2.7052,0.0569,0.998,-0.0273,-0.0381,0.0331,0.0785,-0.3477,0.0376,-0.008,0.0188,1.0311,0.0512,dws
1772192518,1.1906,-1.5096,2.7733,0.0568,0.9981,-0.0227,-0.0288,-0.0329,0.08,-0.1315,-0.176,-0.0291,0.028,0.9652,0.0573,dws
1772192518,1.221,-1.5117,2.8066,0.0555,0.9983,-0.0202,-0.0259,0.0408,0.1172,-0.1478,-0.0474,-0.0734,0.0296,1.0391,0.0969,dws
1772192518,1.2953,-1.513,2.8745,0.0556,0.9983,-0.0157,0.0721,-0.164,-0.0158,-0.3169,0.9052,0.0826,0.1277,0.8343,-0.0315,dws
1772192518,1.3984,-1.5113,2.9525,0.0586,0.9982,-0.0102,0.0506,0.0188,-0.1645,-0.0585,1.4238,0.1395,0.1091,1.017,-0.1747,dws
1772192518,1.4119,-1.5082,2.9417,0.0617,0.998,-0.0099,-0.0176,0.0991,-0.1458,0.1338,0.9674,0.1464,0.0441,1.0972,-0.1557,dws
1772192518,1.3855,-1.5048,2.9015,0.0648,0.9978,-0.0121,-0.0574,-0.0403,-0.1195,0.1942,0.362,0.1751,0.0074,0.9575,-0.1316,dws
1772192519,1.3019,-1.498,2.8184,0.0701,0.9974,-0.0193,0.0251,0.0566,-0.0888,0.5347,-0.4606,0.3316,0.0952,1.054,-0.1081,dws
1772192519,1.181,-1.4885,2.7115,0.076,0.9966,-0.0312,-0.0177,0.075,0.0731,0.467,-0.8337,0.2656,0.0583,1.0717,0.0418,dws
1772192519,1.1168,-1.4822,2.6613,0.0795,0.9961,-0.0388,-0.0513,-0.0139,0.1466,0.1666,-0.4814,0.1277,0.0282,0.9822,0.1078,dws
1772192519,1.1155,-1.4807,2.6606,0.0808,0.9959,-0.0396,-0.0445,0.0352,0.1278,-0.0708,0.4958,0.022,0.0363,1.0311,0.0882,dws
1772192519,1.1571,-1.4814,2.6808,0.0818,0.996,-0.0359,-0.0544,-0.0251,0.0592,-0.0911,1.6068,-0.0098,0.0273,0.9709,0.0233,dws
1772192519,1.201,-1.4819,2.6878,0.0828,0.996,-0.0321,-0.0358,0.0061,0.0269,0.0136,1.9658,-0.0236,0.047,1.0021,-0.0052,dws
1772192519,1.219,-1.482,2.6698,0.0832,0.9961,-0.0306,0.008,-0.0384,-0.0368,0.1235,1.565,-0.0345,0.0913,0.9577,-0.0674,dws
1772192519,1.2136,-1.4805,2.6428,0.0845,0.9959,-0.0315,0.1138,-0.0456,-0.0667,0.1344,0.437,0.1144,0.1983,0.9503,-0.0982,dws
1772192519,1.2076,-1.476,2.6399,0.0884,0.9955,-0.0336,0.2183,-0.0533,0.0765,0.0039,-0.5699,0.2441,0.3067,0.9422,0.0428,dws
1772192519,1.2419,-1.4749,2.6885,0.0906,0.9954,-0.0309,0.0414,0.0761,0.0784,-0.3604,-0.7748,-0.0341,0.132,1.0715,0.0475,dws
1772192519,1.261,-1.4779,2.7228,0.0883,0.9957,-0.0283,-0.0609,0.0403,-0.1753,0.0418,-0.8069,-0.1752,0.0275,1.036,-0.2036,dws
1772192519,1.1559,-1.4823,2.635,0.0809,0.9961,-0.0356,-0.1331,0.0899,-0.1388,0.5144,-0.9491,-0.4716,-0.0522,1.086,-0.1745,dws
1772192519,0.948,-1.4889,2.445,0.0664,0.9966,-0.0477,-0.2086,0.0166,0.0658,0.4475,-0.9298,-0.9333,-0.1421,1.0133,0.0181,dws
1772192519,0.7233,-1.5003,2.2357,0.0466,0.9975,-0.0528,-0.0143,-0.0346,0.2446,-0.005,-0.6027,-0.8126,0.0323,0.9629,0.1918,dws
1772192519,0.6398,-1.508,2.1593,0.0375,0.998,-0.0503,0.1783,-0.0573,0.1162,-0.213,-0.0858,-0.0842,0.2158,0.9407,0.0658,dws
1772192519,0.6928,-1.5097,2.2113,0.039,0.9981,-0.047,0.042,-0.0037,-0.0668,-0.1142,0.1037,0.1012,0.0809,0.9944,-0.1138,dws
1772192519,0.6851,-1.5108,2.2044,0.0379,0.9982,-0.0464,-0.0958,0.1066,-0.0407,0.0511,-0.1842,-0.2635,-0.0579,1.1048,-0.0871,dws
1772192519,0.5477,-1.5147,2.0726,0.0292,0.9984,-0.0479,-0.1051,0.1982,0.0605,0.0714,-0.3472,-0.5803,-0.0759,1.1966,0.0126,dws
1772192519,0.2915,-1.5196,1.8235,0.0147,0.9987,-0.049,-0.1326,0.1791,0.0936,0.003,-0.3853,-0.8656,-0.1179,1.1778,0.0445,dws
1772192519,-0.1242,-1.5226,1.4164,-0.006,0.9988,-0.0478,-0.209,0.2094,0.062,-0.1124,-0.5241,-1.1971,-0.2149,1.2083,0.0142,dws
1772192519,-0.6327,-1.5148,0.9189,-0.0331,0.9984,-0.0451,-0.307,0.2538,-0.0044,-0.1166,-0.6339,-1.4847,-0.34,1.2522,-0.0495,dws
1772192519,-0.9959,-1.4935,0.566,-0.0648,0.997,-0.042,-0.1692,0.1653,0.0169,-0.1925,-0.4388,-1.6138,-0.234,1.1623,-0.0251,dws
1772192519,-1.2134,-1.4689,0.3545,-0.0953,0.9948,-0.0356,0.1134,0.2146,0.0148,-0.386,-0.2155,-1.4208,0.0181,1.2094,-0.0208,dws
1772192519,-1.3343,-1.4476,0.2386,-0.1195,0.9924,-0.0288,0.304,0.2738,-0.1172,-0.2041,-0.317,-0.9629,0.1846,1.2662,-0.146,dws
1772192519,-1.3727,-1.4327,0.2073,-0.1349,0.9905,-0.0271,0.2016,0.0533,-0.1486,0.104,-0.4555,-0.6218,0.0667,1.0438,-0.1757,dws
1772192519,-1.3739,-1.4206,0.2158,-0.1468,0.9887,-0.0293,-0.0332,0.018,-0.0098,0.1502,-0.5302,-0.5615,-0.1799,1.0067,-0.0391,dws
1772192519,-1.3928,-1.407,0.2046,-0.1605,0.9866,-0.0289,-0.2328,-0.1038,0.0161,-0.0142,-0.2553,-0.8001,-0.3933,0.8828,-0.0128,dws
1772192519,-1.4133,-1.3895,0.1858,-0.1781,0.9836,-0.0283,-0.1505,0.0299,-0.013,-0.0429,0.0523,-0.9747,-0.3286,1.0135,-0.0413,dws
1772192519,-1.4461,-1.3696,0.1534,-0.1982,0.9798,-0.0249,0.0457,0.3028,-0.0902,-0.316,-0.0201,-0.9862,-0.1525,1.2826,-0.115,dws
1772192519,-1.4681,-1.3545,0.1278,-0.2134,0.9767,-0.022,0.2743,0.0005,-0.2583,0.1017,0.1709,-0.6667,0.0609,0.9772,-0.2802,dws
1772192519,-1.4406,-1.3421,0.1525,-0.2248,0.974,-0.0294,0.1823,-0.1263,-0.0743,0.5489,0.2949,-0.5644,-0.0424,0.8477,-0.1037,dws
1772192519,-1.4201,-1.3313,0.1739,-0.2345,0.9715,-0.0356,0.0009,0.249,0.2959,0.0022,-0.2732,-0.5764,-0.2336,1.2205,0.2603,dws
1772192519,-1.4336,-1.3209,0.1643,-0.245,0.9689,-0.0338,0.0149,0.0917,0.1213,-0.0368,0.1089,-0.5103,-0.23,1.0606,0.0874,dws
1772192519,-1.4356,-1.3097,0.1463,-0.2557,0.9661,-0.0348,-0.0529,0.1422,-0.0504,-0.3149,1.3928,-0.5149,-0.3086,1.1083,-0.0851,dws
1772192519,-1.4157,-1.3068,0.1259,-0.2578,0.9654,-0.0403,0.1648,0.2424,0.0094,0.0995,2.3566,-0.0792,-0.093,1.2078,-0.0309,dws
1772192519,-1.3623,-1.2977,0.1482,-0.2638,0.9629,-0.0558,-0.3712,0.4868,0.277,0.7631,-0.1371,-0.3796,-0.6351,1.4498,0.2212,dws
1772192519,-1.2894,-1.277,0.2584,-0.2782,0.9571,-0.0804,-0.2121,0.2344,0.0771,2.5572,-2.5891,-0.9367,-0.4903,1.1915,-0.0033,dws
1772192519,-1.1791,-1.2424,0.4133,-0.2981,0.9466,-0.1231,0.4734,0.1592,0.2226,2.848,-1.3013,-0.5397,0.1753,1.1058,0.0995,dws
1772192519,-1.0828,-1.2209,0.5317,-0.3028,0.9394,-0.1607,0.4154,0.5166,-0.1843,2.0604,-0.1723,0.0028,0.1126,1.456,-0.345,dws
1772192519,-0.9867,-1.2014,0.6365,-0.3012,0.9326,-0.1991,0.3468,0.1359,-0.4696,1.8607,-0.2735,0.1421,0.0456,1.0684,-0.6687,dws
1772192519,-0.9124,-1.1824,0.7149,-0.2995,0.9255,-0.2317,0.443,-0.0511,0.2764,1.5322,0.0316,0.0829,0.1434,0.8744,0.0447,dws
1772192519,-0.8616,-1.1633,0.7729,-0.3008,0.9181,-0.2581,0.0876,-0.0622,0.5124,1.3431,-0.4302,-0.1539,-0.2132,0.8559,0.2543,dws
1772192519,-0.857,-1.151,0.7947,-0.3081,0.9132,-0.2668,0.0191,-0.0517,0.9525,0.1379,-0.927,-0.035,-0.289,0.8614,0.6856,dws
1772192519,-0.8778,-1.1529,0.7853,-0.3122,0.9139,-0.2593,-0.53,-0.2114,0.57,-0.4762,-0.1628,-0.261,-0.8423,0.7025,0.3107,dws
1772192519,-0.9111,-1.1519,0.7443,-0.3214,0.9135,-0.2493,-0.9804,-0.3322,0.3817,-0.7008,0.4662,-0.8498,-1.3019,0.5813,0.1324,dws
1772192519,-0.9541,-1.1367,0.6796,-0.3431,0.9072,-0.2432,-1.4961,-0.4016,0.3213,-0.4891,1.0022,-2.0933,-1.8392,0.5057,0.0781,dws
1772192519,-1.0161,-1.0952,0.5909,-0.3892,0.889,-0.2412,-1.7131,-0.4634,0.3016,-0.5933,0.7738,-3.6137,-2.1023,0.4256,0.0605,dws
1772192519,-1.1056,-1.0315,0.4723,-0.459,0.8581,-0.2303,-1.3286,-0.4166,0.1688,-1.3515,0.7432,-4.6324,-1.7876,0.4415,-0.0615,dws
1772192519,-1.1898,-0.9559,0.3487,-0.5355,0.8169,-0.2145,-0.9596,-0.2895,-0.0966,-1.6105,1.2427,-5.0493,-1.4951,0.5274,-0.3111,dws
1772192519,-1.2445,-0.867,0.2424,-0.613,0.7624,-0.2074,-0.84,-0.1968,-0.2544,-1.4083,1.7696,-5.6131,-1.453,0.5656,-0.4618,dws
1772192519,-1.2688,-0.7591,0.1523,-0.6926,0.6883,-0.2158,-0.6725,0.0735,-0.2855,-1.1812,2.2505,-6.7468,-1.3651,0.7618,-0.5013,dws
1772192520,-1.2772,-0.6289,0.0736,-0.7741,0.5883,-0.234,-0.2682,0.2999,-0.5349,-0.6831,1.9913,-7.3498,-1.0423,0.8881,-0.7689,dws
1772192520,-1.2633,-0.4915,0.0179,-0.8403,0.4719,-0.2668,0.0636,0.5705,-0.6845,0.3247,2.594,-7.1789,-0.7767,1.0424,-0.9513,dws
1772192520,-1.2117,-0.3528,-0.0098,-0.8786,0.3455,-0.3298,0.2514,0.6123,-0.5835,1.7983,3.6297,-6.8323,-0.6271,0.9579,-0.9133,dws
1772192520,-1.1423,-0.2127,-0.0205,-0.8891,0.2111,-0.4061,0.2328,0.6046,-0.0176,2.4648,3.5716,-6.6627,-0.6563,0.8157,-0.4238,dws
1772192520,-1.0737,-0.0757,-0.0395,-0.8764,0.0756,-0.4755,0.3241,0.841,0.3894,1.8378,3.7836,-6.3631,-0.5523,0.9166,-0.0861,dws
1772192520,-0.981,0.036,-0.0722,-0.8305,-0.036,-0.5558,0.8693,0.7688,0.3259,1.1769,5.6906,-4.7973,0.0388,0.7327,-0.2299,dws
1772192520,-0.8642,0.1105,-0.1033,-0.756,-0.1103,-0.6453,0.9009,0.5509,0.2737,0.866,5.2478,-3.229,0.145,0.4406,-0.3716,dws
1772192520,-0.768,0.1643,-0.126,-0.6854,-0.1636,-0.7096,0.5544,0.3721,0.1949,1.2761,4.3752,-2.4081,-0.131,0.2085,-0.5147,dws
1772192520,-0.68,0.2161,-0.1444,-0.6142,-0.2145,-0.7595,0.19,0.3904,0.4011,1.2715,4.1159,-2.5455,-0.4242,0.1759,-0.3583,dws
1772192520,-0.5955,0.2626,-0.18,-0.5417,-0.2596,-0.7995,0.1149,0.4444,0.5487,0.3915,3.6038,-2.9222,-0.4267,0.1848,-0.2508,dws
1772192520,-0.5121,0.2907,-0.2262,-0.4694,-0.2866,-0.8352,0.4653,0.4752,0.5227,-0.338,3.521,-2.304,-0.0042,0.1886,-0.3124,dws
1772192520,-0.4367,0.2967,-0.2683,-0.4044,-0.2924,-0.8666,0.6026,0.5015,0.6234,-0.9793,2.6589,-1.6116,0.1982,0.2092,-0.2432,dws
1772192520,-0.3851,0.2841,-0.3066,-0.3606,-0.2803,-0.8896,0.4823,0.4951,0.7435,-1.6504,1.4753,-1.3645,0.1217,0.2148,-0.1461,dws
1772192520,-0.3484,0.2586,-0.3428,-0.33,-0.2557,-0.9087,0.3315,0.4234,0.7838,-1.8427,2.111,-0.9659,0.0015,0.1677,-0.1249,dws
1772192520,-0.1966,0.2549,-0.3763,-0.189,-0.2521,-0.9491,-1.266,0.2315,-1.4947,0.4872,3.5073,-2.0224,-1.455,-0.0206,-2.4438,dws
1772192520,-0.1843,0.2709,-0.4189,-0.1766,-0.2676,-0.9472,-1.2616,0.1542,0.2547,0.3131,-1.1788,-1.7645,-1.4382,-0.1134,-0.6926,dws
1772192520,-0.1963,0.2825,-0.4414,-0.1873,-0.2788,-0.9419,0.085,0.2283,0.1147,0.6332,-0.11,-0.768,-0.1023,-0.0504,-0.8272,dws
1772192520,-0.1721,0.3075,-0.4476,-0.1632,-0.3027,-0.939,0.3439,0.25,-0.2342,1.6521,1.9772,-0.3407,0.1808,-0.0527,-1.1732,dws
1772192520,-0.1399,0.3452,-0.4495,-0.1312,-0.3384,-0.9318,0.0035,0.4251,-0.2448,1.9826,1.2583,-0.4875,-0.1277,0.0868,-1.1766,dws
1772192520,-0.1126,0.3864,-0.4571,-0.1041,-0.3769,-0.9204,-0.0576,0.1302,-0.2861,1.9437,1.1636,-0.6604,-0.1617,-0.2466,-1.2065,dws
1772192520,-0.0907,0.4178,-0.4648,-0.0828,-0.4057,-0.9102,-0.1506,0.0821,0.0576,1.0212,0.783,-0.3713,-0.2333,-0.3236,-0.8526,dws
1772192520,-0.0754,0.4304,-0.4714,-0.0685,-0.4173,-0.9062,-0.1876,-0.0216,-0.0182,0.3753,0.47,-0.4086,-0.2561,-0.4388,-0.9244,dws
1772192520,-0.0655,0.4403,-0.4808,-0.0592,-0.4263,-0.9027,-0.0647,0.0145,-0.1778,0.5374,0.067,-0.4614,-0.1239,-0.4117,-1.0804,dws
1772192520,-0.0618,0.4506,-0.4872,-0.0556,-0.4355,-0.8985,-0.0088,0.0321,-0.0448,0.5893,0.269,-0.1681,-0.0644,-0.4034,-0.9433,dws
1772192520,-0.0521,0.4643,-0.4879,-0.0466,-0.4478,-0.8929,-0.0446,-0.0764,-0.0341,0.7637,0.6706,-0.0073,-0.0911,-0.5242,-0.927,dws
1772192520,-0.0378,0.48,-0.4866,-0.0335,-0.4618,-0.8863,-0.0264,-0.0259,-0.0578,0.8079,0.7782,0.0399,-0.0599,-0.4878,-0.9442,dws
1772192520,-0.0234,0.4964,-0.4861,-0.0206,-0.4763,-0.879,-0.0482,0.0182,-0.0842,0.8628,0.7005,-0.064,-0.0688,-0.4581,-0.9633,dws
1772192520,-0.0096,0.5132,-0.4876,-0.0084,-0.491,-0.8711,-0.0323,0.0139,-0.0096,0.7729,0.5898,-0.06,-0.0406,-0.4771,-0.8807,dws
1772192520,0.0016,0.527,-0.4881,0.0014,-0.5029,-0.8643,-0.0231,0.0446,0.0127,0.6413,0.5475,0.0104,-0.0217,-0.4583,-0.8516,dws
1772192520,0.0118,0.5393,-0.4874,0.0101,-0.5135,-0.858,-0.0375,0.0227,-0.0091,0.5891,0.5035,0.0299,-0.0274,-0.4908,-0.8672,dws
1772192520,0.0201,0.5497,-0.487,0.0171,-0.5224,-0.8525,-0.0333,0.0076,0.0003,0.4609,0.3371,0.0335,-0.0162,-0.5148,-0.8522,dws
1772192520,0.0241,0.5571,-0.4856,0.0204,-0.5287,-0.8486,0.0174,-0.0457,0.0283,0.259,0.1466,0.0876,0.0378,-0.5744,-0.8203,dws
1772192520,0.0251,0.5597,-0.484,0.0212,-0.531,-0.8471,-0.0118,-0.0543,0.0769,0.0485,0.082,0.0607,0.0094,-0.5852,-0.7702,dws
1772192520,0.0267,0.5609,-0.4824,0.0226,-0.5319,-0.8465,-0.0276,-0.017,0.016,0.1045,0.1692,0.0763,-0.005,-0.549,-0.8305,dws
1772192520,0.0295,0.565,-0.4812,0.025,-0.5354,-0.8442,-0.0213,0.0443,-0.086,0.3112,0.1775,0.0292,0.0036,-0.4911,-0.9302,dws
1772192520,0.0322,0.5723,-0.4809,0.0271,-0.5416,-0.8402,0.0122,0.0008,-0.0557,0.3832,0.0915,0.0403,0.0393,-0.5408,-0.8959,dws
1772192520,0.0317,0.5781,-0.479,0.0266,-0.5464,-0.8371,0.0392,-0.0284,0.0481,0.1735,-0.0185,0.1306,0.0658,-0.5748,-0.789,dws
1772192520,0.0299,0.5794,-0.4758,0.025,-0.5476,-0.8364,-0.0166,-0.002,0.0784,-0.0236,0.0192,0.1204,0.0084,-0.5496,-0.758,dws
1772192520,0.0299,0.5781,-0.4737,0.025,-0.5464,-0.8371,-0.0435,0.0265,0.0514,-0.0894,0.1052,0.0618,-0.0185,-0.5199,-0.7857,dws
1772192520,0.0325,0.5766,-0.4727,0.0272,-0.5452,-0.8379,-0.0463,0.0277,0.0067,-0.036,0.2043,0.015,-0.0191,-0.5174,-0.8312,dws
1772192520,0.0367,0.5774,-0.4725,0.0307,-0.5458,-0.8373,-0.022,0.0267,-0.0452,0.1105,0.2065,0.0052,0.0087,-0.5191,-0.8826,dws
1772192520,0.0397,0.5795,-0.4725,0.0332,-0.5476,-0.8361,0.0164,-0.0173,-0.01,0.0616,0.0979,0.0086,0.0496,-0.5649,-0.8461,dws
1772192520,0.0407,0.579,-0.4719,0.0341,-0.5472,-0.8363,0.0146,-0.0283,0.0464,-0.0486,0.083,0.0315,0.0487,-0.5755,-0.7899,dws
1772192520,0.0432,0.5788,-0.4717,0.0362,-0.547,-0.8363,-0.0167,-0.013,0.0262,-0.0042,0.1391,0.0012,0.0195,-0.56,-0.8102,dws
1772192520,0.0444,0.5772,-0.4713,0.0372,-0.5457,-0.8372,0.0132,-0.0105,0.0478,-0.1731,-0.0189,0.0264,0.0504,-0.5562,-0.7893,dws
1772192520,0.0421,0.5719,-0.4698,0.0354,-0.5413,-0.8401,0.041,-0.0358,0.0413,-0.3306,-0.1194,0.0646,0.0764,-0.577,-0.7988,dws
1772192520,0.0383,0.5662,-0.468,0.0324,-0.5364,-0.8433,0.0332,-0.0164,-0.0304,-0.2096,-0.1347,0.0762,0.0655,-0.5528,-0.8737,dws
