Timestamp,Roll,Pitch,Yaw,GravX,GravY,GravZ,UserAccX,UserAccY,UserAccZ,GyroX,GyroY,GyroZ,TotalAccX,TotalAccY,TotalAccZ,Ground_Truth
1772309644,-0.0103,0.4506,0.0024,-0.0093,-0.4355,-0.9001,-0.0008,-0.0497,-0.0332,-0.8117,-0.7808,0.2797,-0.0101,-0.4852,-0.9333,dws
1772309644,-0.0304,0.4382,0.0116,-0.0276,-0.4243,-0.9051,-0.0063,-0.0449,-0.0494,-0.3877,-0.8623,0.5655,-0.0339,-0.4692,-0.9545,dws
1772309644,-0.0535,0.4329,0.0252,-0.0485,-0.4195,-0.9065,-0.021,-0.0094,-0.0274,-0.1594,-0.8249,0.679,-0.0695,-0.4289,-0.9338,dws
1772309644,-0.074,0.4293,0.0405,-0.0673,-0.4162,-0.9068,-0.0584,0.1121,-0.0422,-0.0695,-0.6162,0.7011,-0.1257,-0.3041,-0.949,dws
1772309644,-0.0938,0.4312,0.0554,-0.0851,-0.418,-0.9045,-0.1792,0.1193,-0.1453,0.4079,-0.8,0.6814,-0.2643,-0.2987,-1.0498,dws
1772309644,-0.1181,0.4388,0.0741,-0.1066,-0.4249,-0.899,-0.1168,0.2868,-0.0773,0.3945,-0.6858,0.803,-0.2234,-0.1381,-0.9762,dws
1772309644,-0.1346,0.4396,0.0893,-0.1214,-0.4256,-0.8967,-0.0589,0.1925,0.0096,-0.1746,-0.4837,0.5741,-0.1803,-0.2331,-0.8871,dws
1772309644,-0.1562,0.4286,0.0993,-0.1415,-0.4156,-0.8985,0.1053,0.0684,-0.0651,-0.7835,-1.2326,0.4964,-0.0363,-0.3472,-0.9635,dws
1772309644,-0.187,0.4079,0.1079,-0.1707,-0.3967,-0.9019,0.0347,0.1218,0.0353,-1.0445,-1.3297,0.641,-0.1359,-0.2748,-0.8666,dws
1772309644,-0.2095,0.3865,0.1155,-0.1926,-0.3769,-0.906,-0.0656,0.0134,0.1049,-0.8532,-0.648,0.4399,-0.2582,-0.3635,-0.8011,dws
1772309644,-0.2236,0.3735,0.1132,-0.2064,-0.3649,-0.9079,0.0417,0.0259,-0.0631,-0.5498,-1.1103,-0.5266,-0.1647,-0.339,-0.971,dws
1772309644,-0.2486,0.3655,0.0908,-0.2298,-0.3574,-0.9052,0.2902,0.1532,-0.1702,-0.8673,-1.8273,-1.1671,0.0604,-0.2042,-1.0755,dws
1772309644,-0.2705,0.3495,0.0623,-0.251,-0.3424,-0.9054,0.033,0.1767,-0.0373,-1.1835,-1.6617,-0.9371,-0.218,-0.1657,-0.9426,dws
1772309644,-0.2787,0.3351,0.0396,-0.2598,-0.3289,-0.9079,0.0735,0.4526,-0.0413,-0.8756,0.2907,-1.0058,-0.1864,0.1237,-0.9492,dws
1772309644,-0.2497,0.3218,0.0111,-0.2345,-0.3162,-0.9193,0.1563,-0.6001,0.0421,-1.1402,1.3197,-0.8837,-0.0782,-0.9164,-0.8771,dws
1772309644,-0.2299,0.3015,0.0013,-0.2176,-0.297,-0.9298,0.4739,-0.7017,-0.0302,-1.2436,0.2166,0.0689,0.2564,-0.9987,-0.96,dws
1772309644,-0.2256,0.2747,0.0019,-0.2153,-0.2713,-0.9381,-0.0973,0.2645,0.1995,-1.325,0.2706,0.5836,-0.3126,-0.0068,-0.7386,dws
1772309644,-0.2266,0.2442,0.0064,-0.218,-0.2417,-0.9455,0.1449,0.2662,0.4559,-1.614,-0.4148,0.5563,-0.0731,0.0244,-0.4896,dws
1772309644,-0.2503,0.209,0.013,-0.2423,-0.2075,-0.9477,0.1435,0.2817,0.5547,-1.521,-1.8877,0.7879,-0.0988,0.0742,-0.3931,dws
1772309644,-0.2988,0.1822,0.0206,-0.2895,-0.1812,-0.9399,0.0992,0.2015,0.5017,-0.7353,-2.6197,0.6904,-0.1904,0.0203,-0.4382,dws
1772309644,-0.3554,0.1732,0.0344,-0.3427,-0.1724,-0.9235,0.1676,0.1863,0.2132,0.019,-2.9884,0.9456,-0.1751,0.0139,-0.7103,dws
1772309644,-0.4215,0.16,0.0529,-0.4039,-0.1594,-0.9008,0.1953,0.3082,0.5319,-0.606,-3.1694,1.2992,-0.2086,0.1489,-0.3689,dws
1772309644,-0.4867,0.1315,0.072,-0.4637,-0.1311,-0.8762,0.1784,0.2692,0.3518,-1.0315,-3.2212,1.6332,-0.2852,0.1381,-0.5244,dws
1772309644,-0.5563,0.0972,0.0936,-0.5255,-0.097,-0.8452,0.1341,0.2462,0.0228,-0.855,-3.496,1.9377,-0.3914,0.1492,-0.8225,dws
1772309644,-0.6263,0.0604,0.118,-0.5851,-0.0603,-0.8087,0.0018,0.2732,-0.0922,-0.9226,-3.2907,2.2104,-0.5833,0.2128,-0.901,dws
1772309644,-0.6827,0.0175,0.1415,-0.6308,-0.0175,-0.7758,-0.0555,0.1817,-0.1995,-1.0193,-2.2265,2.1823,-0.6863,0.1642,-0.9752,dws
1772309644,-0.7257,-0.0268,0.1619,-0.6634,0.0268,-0.7478,-0.1563,0.1275,-0.2706,-1.0024,-2.2148,2.3024,-0.8197,0.1543,-1.0184,dws
1772309644,-0.766,-0.0685,0.1832,-0.6916,0.0685,-0.719,0.0209,0.0761,-0.2316,-0.624,-2.1008,2.133,-0.6707,0.1446,-0.9506,dws
1772309644,-0.8109,-0.1064,0.2068,-0.7208,0.1062,-0.685,0.022,0.1017,-0.1908,-0.4025,-2.6836,2.3158,-0.6988,0.2079,-0.8758,dws
1772309644,-0.8602,-0.1436,0.2379,-0.7502,0.1431,-0.6456,-0.0271,-0.0254,-0.3052,0.2102,-2.3289,2.3972,-0.7773,0.1177,-0.9508,dws
1772309644,-0.893,-0.1743,0.2707,-0.7671,0.1734,-0.6176,-0.1909,0.0197,-0.2898,0.2769,-1.5665,2.1074,-0.9581,0.1931,-0.9074,dws
1772309644,-0.912,-0.2048,0.3012,-0.7742,0.2034,-0.5994,0.0173,0.0077,-0.1296,0.1886,-1.1104,2.2387,-0.7569,0.2111,-0.729,dws
1772309644,-0.9322,-0.2396,0.3342,-0.78,0.2373,-0.579,0.0213,-0.0852,-0.0722,0.3459,-1.9678,2.5091,-0.7587,0.152,-0.6512,dws
1772309644,-0.968,-0.2733,0.373,-0.7932,0.2699,-0.5459,-0.05,-0.179,-0.0274,0.6648,-2.5126,2.3297,-0.8432,0.0909,-0.5733,dws
1772309644,-1.01,-0.3013,0.4109,-0.8087,0.2968,-0.5079,-0.2606,-0.2057,-0.1157,0.8649,-2.6828,2.064,-1.0692,0.0911,-0.6236,dws
1772309644,-1.0447,-0.3235,0.4449,-0.8199,0.3179,-0.4761,-0.3842,-0.2024,-0.1101,0.6507,-1.7726,1.4954,-1.2041,0.1155,-0.5863,dws
1772309644,-1.0624,-0.3437,0.4643,-0.8224,0.337,-0.4583,-0.333,-0.2221,0.0909,-0.0724,-0.8069,1.2846,-1.1554,0.1149,-0.3674,dws
1772309644,-1.0752,-0.37,0.474,-0.8202,0.3617,-0.4433,-0.1944,-0.1706,0.105,-0.2247,-0.9633,1.4747,-1.0146,0.1911,-0.3383,dws
1772309644,-1.0931,-0.3951,0.4901,-0.8196,0.3849,-0.4243,-0.2102,-0.0198,-0.1691,0.4246,-1.3305,1.3749,-1.0298,0.3651,-0.5935,dws
1772309644,-1.1066,-0.4098,0.5149,-0.8201,0.3985,-0.4106,-0.4012,-0.0629,-0.2688,0.8578,-1.022,1.0104,-1.2214,0.3356,-0.6794,dws
1772309644,-1.111,-0.4177,0.5412,-0.8191,0.4057,-0.4056,-0.3918,-0.1514,-0.2127,0.9212,-0.4945,0.7955,-1.2109,0.2543,-0.6183,dws
1772309644,-1.1043,-0.4223,0.5669,-0.8147,0.4098,-0.4102,-0.2777,-0.088,-0.2323,1.0213,0.0842,0.7136,-1.0924,0.3218,-0.6425,dws
1772309644,-1.0858,-0.4253,0.5982,-0.8059,0.4126,-0.4247,-0.2066,0.0469,-0.3759,1.4209,0.4279,0.8735,-1.0125,0.4595,-0.8006,dws
1772309644,-1.0589,-0.4276,0.6389,-0.7933,0.4147,-0.4457,-0.1817,0.1155,-0.3472,1.786,0.5994,1.1612,-0.975,0.5303,-0.793,dws
1772309644,-1.0263,-0.4288,0.691,-0.7779,0.4158,-0.4711,-0.1655,0.1508,-0.4007,2.2687,0.4629,1.3378,-0.9434,0.5665,-0.8718,dws
1772309644,-0.9931,-0.4253,0.7522,-0.7631,0.4126,-0.4975,-0.2124,0.0891,-0.3358,2.6246,0.3039,1.3009,-0.9755,0.5017,-0.8333,dws
1772309644,-0.9647,-0.4156,0.8116,-0.7519,0.4038,-0.5212,-0.3287,-0.0118,-0.091,2.2726,0.1586,0.9244,-1.0806,0.3919,-0.6122,dws
1772309645,-0.9521,-0.4096,0.8501,-0.7473,0.3982,-0.532,-0.4044,-0.1493,0.5932,1.2994,-0.0738,0.6387,-1.1517,0.2489,0.0612,dws
1772309645,-0.9431,-0.3992,0.8839,-0.7457,0.3887,-0.5411,-0.1826,0.1518,-0.1333,1.1816,-0.8879,0.3031,-0.9283,0.5405,-0.6744,dws
1772309645,-0.9457,-0.3886,0.9107,-0.7504,0.3789,-0.5416,-0.1061,-0.026,0.379,1.2182,-0.4277,0.0919,-0.8565,0.3529,-0.1626,dws
1772309645,-0.9453,-0.3805,0.9254,-0.7527,0.3714,-0.5436,0.0751,-0.0775,0.5483,0.1309,-0.3515,0.0738,-0.6776,0.2939,0.0047,dws
1772309645,-0.9544,-0.3816,0.9273,-0.7573,0.3724,-0.5365,0.2029,-0.1919,0.5165,0.0832,-0.573,-0.0007,-0.5544,0.1805,-0.02,dws
1772309645,-0.9627,-0.3792,0.9312,-0.7625,0.3702,-0.5307,0.2739,-0.1332,0.1305,0.3181,-0.3195,0.0512,-0.4886,0.2369,-0.4002,dws
1772309645,-0.9626,-0.3775,0.9379,-0.7629,0.3686,-0.5311,0.3371,-0.2671,0.156,0.2876,0.0097,0.174,-0.4258,0.1015,-0.3751,dws
1772309645,-0.9577,-0.3763,0.9478,-0.7606,0.3675,-0.5352,0.2895,-0.2897,0.0725,0.5175,0.1214,0.2269,-0.4711,0.0778,-0.4627,dws
1772309645,-0.9493,-0.3743,0.9572,-0.7567,0.3657,-0.542,0.1386,-0.369,0.1257,0.2466,0.3721,0.1919,-0.6181,-0.0033,-0.4162,dws
1772309645,-0.9398,-0.3767,0.9631,-0.7508,0.3679,-0.5486,0.1616,-0.3006,0.0691,0.1252,0.347,0.4041,-0.5892,0.0672,-0.4795,dws
1772309645,-0.9325,-0.3856,0.9742,-0.7441,0.3761,-0.5521,0.1628,0.0898,0.0025,0.1274,0.0126,0.883,-0.5813,0.4659,-0.5496,dws
1772309645,-0.9299,-0.4016,0.9864,-0.7378,0.3909,-0.5504,0.0102,0.0801,0.2453,-0.3019,-0.2931,1.0381,-0.7276,0.4709,-0.3051,dws
1772309645,-0.9353,-0.4247,0.9918,-0.7333,0.4121,-0.5408,0.1043,0.1362,0.1158,-0.6027,-0.5882,1.1138,-0.629,0.5483,-0.425,dws
1772309645,-0.9566,-0.4526,0.9964,-0.7349,0.4373,-0.5183,0.2005,0.3694,0.1622,-0.7526,-1.6061,1.4424,-0.5345,0.8068,-0.356,dws
1772309645,-0.9868,-0.4853,1.0032,-0.738,0.4664,-0.4877,0.1421,0.1945,-0.0686,-1.009,-2.1313,1.736,-0.5959,0.6609,-0.5562,dws
1772309645,-1.0245,-0.5347,1.0061,-0.7352,0.5095,-0.447,0.6659,0.4169,0.0881,-0.7611,-1.9508,2.1392,-0.0693,0.9264,-0.3589,dws
1772309645,-1.052,-0.5718,1.025,-0.7303,0.5411,-0.417,-0.0462,0.3892,-0.4817,-0.0245,-1.4828,2.0502,-0.7764,0.9303,-0.8987,dws
1772309645,-1.0624,-0.6119,1.0449,-0.715,0.5744,-0.3985,0.1968,0.2707,-0.0805,-0.383,-0.8899,2.1296,-0.5182,0.8451,-0.479,dws
1772309645,-1.0708,-0.6505,1.0587,-0.6984,0.6056,-0.3815,-0.1079,0.057,-0.0137,-0.6096,-0.6853,2.0703,-0.8063,0.6626,-0.3952,dws
1772309645,-1.0719,-0.6971,1.0703,-0.6733,0.642,-0.3668,0.1124,0.098,0.1042,-0.7804,-0.2708,2.4684,-0.5609,0.74,-0.2626,dws
1772309645,-1.0696,-0.7487,1.0844,-0.6424,0.6807,-0.352,0.0919,0.0584,-0.166,-0.8303,-0.3353,2.4434,-0.5505,0.7391,-0.518,dws
1772309645,-1.0682,-0.7945,1.0899,-0.614,0.7135,-0.3375,-0.5005,-0.3209,-0.1768,-1.0089,0.2481,1.7963,-1.1145,0.3926,-0.5143,dws
1772309645,-1.0638,-0.8354,1.0865,-0.5865,0.7415,-0.3258,-0.4968,-0.4213,0.0233,-1.1157,0.2317,1.6515,-1.0833,0.3202,-0.3025,dws
1772309645,-1.0663,-0.8761,1.0822,-0.5604,0.7682,-0.3095,-0.379,-0.3998,0.1206,-1.0997,-0.0875,1.8887,-0.9394,0.3684,-0.1888,dws
1772309645,-1.0761,-0.9208,1.0802,-0.5327,0.7961,-0.2873,-0.3519,-0.2317,0.1705,-1.1557,-0.6361,1.9467,-0.8846,0.5644,-0.1168,dws
1772309645,-1.0926,-0.9702,1.0788,-0.5018,0.825,-0.2601,-0.1109,-0.097,0.1811,-1.2209,-0.7158,2.3495,-0.6126,0.728,-0.079,dws
1772309645,-1.107,-1.0177,1.0781,-0.4699,0.8509,-0.235,-0.0307,-0.1887,0.0635,-0.9758,-0.8206,1.9331,-0.5005,0.6622,-0.1715,dws
1772309645,-1.1225,-1.0559,1.0805,-0.4438,0.8704,-0.2134,-0.0072,0.1719,0.0699,-0.6926,-0.819,1.705,-0.4509,1.0423,-0.1435,dws
1772309645,-1.1298,-1.0897,1.0857,-0.4185,0.8865,-0.1976,-0.0615,0.3462,-0.1217,-0.5674,-0.4108,1.3691,-0.48,1.2327,-0.3192,dws
1772309645,-1.1412,-1.1125,1.0811,-0.4022,0.8968,-0.1843,-0.0052,0.0059,0.0452,-0.6356,-0.2387,0.806,-0.4074,0.9027,-0.1391,dws
1772309645,-1.154,-1.1307,1.0699,-0.3896,0.9047,-0.1725,0.207,0.2075,-0.0516,-0.5862,-0.1387,0.6421,-0.1826,1.1122,-0.2241,dws
1772309645,-1.1629,-1.1444,1.0621,-0.3797,0.9104,-0.1641,0.0112,0.2703,-0.1499,-0.2671,-0.0054,0.5185,-0.3685,1.1807,-0.3139,dws
1772309645,-1.1651,-1.1542,1.0586,-0.3718,0.9145,-0.1597,-0.1876,0.1895,0.0338,-0.3086,0.2043,0.3228,-0.5593,1.104,-0.1259,dws
1772309645,-1.1692,-1.1622,1.0439,-0.3657,0.9177,-0.1553,-0.2508,0.028,0.1786,-0.5189,0.7427,0.1971,-0.6165,0.9457,0.0233,dws
1772309645,-1.1742,-1.1676,1.0168,-0.3619,0.9198,-0.1516,-0.2607,-0.0569,0.1178,-0.6011,1.1586,-0.0556,-0.6226,0.8629,-0.0338,dws
1772309645,-1.1816,-1.1677,0.9862,-0.3629,0.9199,-0.1489,-0.0166,-0.0415,-0.1051,-0.5203,0.7555,-0.2728,-0.3796,0.8783,-0.254,dws
1772309645,-1.1889,-1.1693,0.9678,-0.3626,0.9205,-0.1456,0.2089,0.0404,-0.1869,-0.203,0.3568,0.1619,-0.1537,0.9608,-0.3325,dws
1772309645,-1.1845,-1.1797,0.9645,-0.3531,0.9245,-0.1436,0.0931,-0.0716,-0.0931,-0.292,0.5131,0.7855,-0.26,0.8529,-0.2368,dws
1772309645,-1.163,-1.1984,0.9721,-0.334,0.9315,-0.1443,0.0978,-0.0573,0.0512,-0.1571,0.9003,0.9326,-0.2362,0.8741,-0.0931,dws
1772309645,-1.1346,-1.2135,0.9843,-0.317,0.9368,-0.1478,0.0325,0.0079,0.0637,0.0409,0.5096,0.6639,-0.2845,0.9448,-0.0841,dws
1772309645,-1.1002,-1.2203,1.0184,-0.3061,0.9392,-0.1557,0.0667,0.0169,-0.0409,0.6285,-0.0815,0.4794,-0.2393,0.9561,-0.1966,dws
1772309645,-1.063,-1.2215,1.0611,-0.299,0.9396,-0.1664,0.0257,-0.0199,-0.0187,0.5523,-0.1871,0.319,-0.2733,0.9198,-0.1851,dws
1772309645,-1.0395,-1.2227,1.0884,-0.2941,0.94,-0.1728,-0.0152,0.0064,-0.053,0.189,-0.0215,0.2847,-0.3093,0.9464,-0.2258,dws
1772309645,-1.0292,-1.2277,1.1006,-0.2882,0.9417,-0.1734,0.0069,-0.0173,-0.0828,-0.0493,-0.1097,0.3788,-0.2813,0.9244,-0.2562,dws
1772309645,-1.0215,-1.2346,1.1119,-0.2813,0.944,-0.1722,-0.0422,-0.1041,0.0427,0.0623,-0.0573,0.434,-0.3235,0.84,-0.1295,dws
1772309645,-1.0045,-1.2431,1.1321,-0.2717,0.9468,-0.1727,-0.0425,-0.0594,0.0461,0.0204,-0.1183,0.6513,-0.3141,0.8874,-0.1266,dws
1772309645,-0.9851,-1.2551,1.1554,-0.2588,0.9506,-0.1716,-0.0733,-0.0332,0.0186,-0.0322,-0.1879,0.7335,-0.332,0.9174,-0.1531,dws
1772309645,-0.9629,-1.2667,1.1824,-0.2458,0.9541,-0.1711,-0.0113,-0.0202,-0.0355,0.068,-0.1244,0.6854,-0.2571,0.9339,-0.2065,dws
1772309645,-0.9389,-1.2752,1.212,-0.2351,0.9566,-0.1721,0.0023,-0.0086,0.0053,0.1537,-0.3602,0.5172,-0.2327,0.948,-0.1668,dws
1772309645,-0.9182,-1.2806,1.2408,-0.2273,0.9582,-0.1737,0.0402,0.0141,0.0113,0.1471,-0.2903,0.445,-0.1871,0.9723,-0.1625,dws
1772309645,-0.8976,-1.2876,1.2648,-0.2185,0.9602,-0.1742,0.0493,0.0105,0.0046,-0.0486,0.0138,0.5514,-0.1691,0.9707,-0.1696,dws
1772309646,-0.8758,-1.2992,1.2864,-0.206,0.9633,-0.1718,-0.0037,-0.0275,0.0102,-0.2126,0.1163,0.7366,-0.2098,0.9358,-0.1615,dws
1772309646,-0.8451,-1.3136,1.3146,-0.1903,0.9671,-0.1688,-0.0075,-0.0445,-0.0043,-0.1218,0.1916,0.7951,-0.1977,0.9226,-0.1731,dws
1772309646,-0.8074,-1.3238,1.3513,-0.1767,0.9696,-0.1691,-0.0188,-0.0159,0.0058,0.1085,-0.0441,0.5449,-0.1955,0.9538,-0.1632,dws
1772309646,-0.7775,-1.3275,1.3872,-0.169,0.9705,-0.1717,-0.0115,0.0251,0.004,0.2103,-0.3688,0.3955,-0.1805,0.9956,-0.1677,dws
1772309646,-0.7478,-1.3321,1.4271,-0.1608,0.9716,-0.1734,0.0567,-0.0526,0.0002,0.1182,-0.4134,0.5767,-0.1041,0.919,-0.1732,dws
1772309646,-0.7243,-1.3398,1.4604,-0.1517,0.9734,-0.1715,-0.0616,-0.253,0.0211,-0.1975,-0.5602,0.5331,-0.2133,0.7205,-0.1503,dws
1772309646,-0.7074,-1.348,1.4856,-0.1436,0.9753,-0.1679,-0.0841,-0.2359,0.0413,-0.0007,-0.0514,0.4207,-0.2277,0.7393,-0.1266,dws
1772309646,-0.6724,-1.3529,1.5183,-0.1347,0.9763,-0.1692,-0.0191,-0.0095,0.0177,0.0324,0.2154,0.4865,-0.1538,0.9669,-0.1514,dws
1772309646,-0.6326,-1.3575,1.5576,-0.1251,0.9773,-0.1707,-0.0316,0.0435,-0.037,0.1372,-0.1265,0.3984,-0.1567,1.0209,-0.2077,dws
1772309646,-0.6049,-1.356,1.5888,-0.1212,0.977,-0.1753,-0.0005,-0.0624,-0.0997,0.3066,-0.0205,0.0356,-0.1217,0.9146,-0.275,dws
1772309646,-0.6082,-1.353,1.5845,-0.1235,0.9764,-0.1773,0.0773,-0.0331,0.1512,-0.0785,0.1056,-0.2604,-0.0461,0.9433,-0.0261,dws
1772309646,-0.6369,-1.3524,1.5523,-0.1288,0.9763,-0.1742,0.089,0.0474,-0.0414,-0.2879,0.0998,-0.2862,-0.0399,1.0237,-0.2156,dws
1772309646,-0.6663,-1.3557,1.5201,-0.1319,0.977,-0.1678,0.0787,0.0829,0.0171,-0.3757,0.079,-0.0615,-0.0533,1.0598,-0.1507,dws
1772309646,-0.6859,-1.3609,1.4993,-0.132,0.9781,-0.1612,0.033,0.0624,0.0138,-0.3044,-0.001,0.0141,-0.0989,1.0405,-0.1475,dws
1772309646,-0.7041,-1.3653,1.4815,-0.1321,0.979,-0.1555,0.0089,0.007,0.0153,-0.2823,-0.0723,0.0104,-0.1232,0.986,-0.1402,dws
1772309646,-0.7207,-1.3702,1.4657,-0.1315,0.9799,-0.1497,0.0103,0.0187,0.0162,-0.2797,0.0319,0.0714,-0.1212,0.9986,-0.1335,dws
1772309646,-0.7279,-1.3755,1.4579,-0.1291,0.981,-0.1449,-0.0282,0.1203,0.0342,-0.2104,-0.0096,0.1456,-0.1573,1.1013,-0.1107,dws
1772309646,-0.7266,-1.3801,1.46,-0.1259,0.9819,-0.1417,-0.0566,0.1349,0.0138,-0.1057,-0.0074,0.2154,-0.1825,1.1168,-0.1279,dws
1772309646,-0.7129,-1.3839,1.4743,-0.1215,0.9826,-0.1405,-0.058,0.1275,0.0098,-0.0068,-0.0435,0.2257,-0.1795,1.11,-0.1307,dws
1772309646,-0.6999,-1.385,1.4888,-0.119,0.9828,-0.1413,-0.1007,0.1677,-0.0526,0.0644,0,0.0303,-0.2197,1.1505,-0.1938,dws
1772309646,-0.6982,-1.3846,1.4896,-0.119,0.9827,-0.1418,-0.011,0.0193,0.0586,-0.0041,0.0558,-0.0171,-0.13,1.002,-0.0833,dws
1772309646,-0.6956,-1.384,1.4923,-0.119,0.9826,-0.1426,-0.0201,-0.0218,-0.0147,0.0854,-0.0478,0.0137,-0.1391,0.9608,-0.1573,dws
1772309646,-0.6877,-1.3826,1.5015,-0.1188,0.9823,-0.1446,-0.0062,-0.0302,-0.0059,0.1144,-0.076,0.0263,-0.125,0.9521,-0.1505,dws
1772309646,-0.6822,-1.3815,1.5091,-0.1186,0.9821,-0.146,-0.0088,0.003,0.0109,0.0474,-0.109,0.0224,-0.1274,0.9852,-0.1351,dws
1772309646,-0.6822,-1.3817,1.5113,-0.1185,0.9822,-0.1459,0.0234,0.0004,0.0212,-0.0294,-0.1123,0.0237,-0.0951,0.9826,-0.1247,dws
1772309646,-0.6851,-1.3826,1.5105,-0.1184,0.9823,-0.1448,0.0344,-0.0199,0,-0.0526,-0.0957,0.0155,-0.0839,0.9624,-0.1448,dws
1772309646,-0.6901,-1.3835,1.5065,-0.1186,0.9825,-0.1436,0.0093,-0.001,-0.0119,-0.0521,0.0303,-0.0218,-0.1092,0.9816,-0.1555,dws
1772309646,-0.6928,-1.3831,1.5024,-0.1192,0.9824,-0.1436,-0.0166,-0.0032,-0.0095,0.0318,0.012,-0.0391,-0.1357,0.9793,-0.1531,dws
1772309646,-0.6899,-1.3816,1.5062,-0.1197,0.9821,-0.1451,0.028,0.0013,0.0254,0.0875,-0.0418,-0.0247,-0.0917,0.9835,-0.1197,dws
1772309646,-0.6975,-1.3801,1.4997,-0.1217,0.9819,-0.1453,-0.0141,0.0092,-0.0009,-0.07,-0.1085,-0.2116,-0.1359,0.9911,-0.1462,dws
1772309646,-0.7255,-1.3799,1.4725,-0.1259,0.9818,-0.142,0.0024,-0.047,-0.0548,-0.2567,0.171,-0.1854,-0.1235,0.9349,-0.1967,dws
1772309646,-0.7555,-1.3822,1.4326,-0.1285,0.9823,-0.1365,-0.1335,-0.0696,-0.0533,-0.3572,0.6387,-0.2027,-0.2621,0.9127,-0.1898,dws
1772309646,-0.7733,-1.3831,1.4048,-0.1304,0.9824,-0.1336,-0.0391,0.0062,0.0589,-0.0293,0.1935,-0.1052,-0.1694,0.9886,-0.0747,dws
1772309646,-0.7684,-1.382,1.412,-0.1304,0.9822,-0.1349,0.1298,0.0715,0.0377,0.1225,-0.2976,0.0952,-0.0007,1.0537,-0.0972,dws
1772309646,-0.7555,-1.3817,1.4316,-0.1289,0.9822,-0.1368,-0.0483,-0.0101,0.0012,0.1566,-0.313,0.1369,-0.1772,0.9721,-0.1357,dws
1772309646,-0.7384,-1.3813,1.4546,-0.1268,0.9821,-0.1393,-0.0396,-0.0234,-0.0248,0.1543,-0.2275,0.1726,-0.1664,0.9587,-0.1641,dws
1772309646,-0.7235,-1.3813,1.4744,-0.1247,0.9821,-0.1412,-0.0045,-0.0277,-0.012,0.1006,-0.2389,0.0866,-0.1293,0.9544,-0.1532,dws
1772309646,-0.7268,-1.3808,1.4756,-0.1255,0.982,-0.1411,0.0286,-0.0118,-0.0009,-0.0651,-0.1838,-0.1093,-0.0969,0.9702,-0.142,dws
1772309646,-0.7557,-1.3792,1.4491,-0.1306,0.9817,-0.1386,0.0079,-0.1265,-0.0058,-0.2084,-0.1774,-0.2753,-0.1227,0.8552,-0.1443,dws
1772309646,-0.785,-1.3831,1.4216,-0.1319,0.9824,-0.132,0.1121,-0.2159,-0.0191,-0.3959,-0.0045,0.2029,-0.0198,0.7665,-0.1511,dws
1772309646,-0.7991,-1.3914,1.4114,-0.1279,0.984,-0.1244,0.0638,-0.2857,0.0057,-0.3173,-0.303,0.2766,-0.064,0.6983,-0.1187,dws
1772309646,-0.7884,-1.3994,1.4272,-0.1209,0.9854,-0.1202,0.0688,-0.4156,0.0297,-0.1097,-0.1677,0.517,-0.0521,0.5697,-0.0905,dws
1772309646,-0.7463,-1.4104,1.4713,-0.1084,0.9872,-0.1173,0.0701,-0.3563,0.0568,-0.2269,0.1549,0.778,-0.0384,0.6309,-0.0604,dws
1772309646,-0.6832,-1.4252,1.5303,-0.0916,0.9894,-0.1125,0.0749,-0.3229,0.0504,-0.331,0.2953,0.8242,-0.0167,0.6665,-0.0621,dws
1772309646,-0.6385,-1.4421,1.5736,-0.0765,0.9917,-0.1031,0.0474,-0.0838,0.0056,-0.6343,-0.147,0.7216,-0.0291,0.908,-0.0975,dws
1772309646,-0.608,-1.4617,1.6092,-0.0622,0.9941,-0.0894,0.0634,-0.0099,-0.0432,-0.7228,-0.3222,0.79,0.0012,0.9841,-0.1326,dws
1772309646,-0.5491,-1.4802,1.6786,-0.0472,0.9959,-0.0772,-0.0063,0.1464,-0.0433,-0.4621,-0.7107,0.7488,-0.0535,1.1423,-0.1204,dws
1772309646,-0.5154,-1.4947,1.7345,-0.0375,0.9971,-0.0661,0.025,0.03,0.0268,-0.6167,-1.5953,0.3681,-0.0125,1.0271,-0.0394,dws
1772309646,-0.6303,-1.5129,1.6555,-0.0341,0.9983,-0.0468,-0.0009,-0.1369,0.0436,-1.0119,-1.7693,0.3378,-0.035,0.8615,-0.0032,dws
1772309646,-0.6787,-1.5316,1.6294,-0.0246,0.9992,-0.0305,-0.0448,0.0511,-0.0628,-0.7034,-0.901,0.8144,-0.0694,1.0503,-0.0933,dws
1772309647,-0.0848,-1.5488,2.2348,-0.0019,0.9998,-0.0219,0.0361,0.0873,0.0206,-0.1878,0.2836,1.441,0.0343,1.0871,-0.0013,dws
1772309647,1.0607,-1.5356,-2.9268,0.0307,0.9994,-0.0172,-0.0112,-0.322,0.0932,0.1653,1.4725,1.7273,0.0195,0.6774,0.076,dws
1772309647,1.2587,-1.5023,-2.7484,0.0651,0.9977,-0.021,-0.0399,-0.5071,0.0089,0.1015,0.4804,1.6886,0.0252,0.4905,-0.0121,dws
1772309647,1.3636,-1.4718,-2.6424,0.0967,0.9951,-0.0203,-0.0689,-0.549,-0.0015,-0.1141,-0.5181,1.5138,0.0278,0.4461,-0.0218,dws
1772309647,1.3991,-1.4449,-2.5793,0.1237,0.9921,-0.0214,-0.0787,0.6129,-0.1959,-0.2038,-2.7958,0.7897,0.045,1.605,-0.2173,dws
1772309647,1.3649,-1.448,-2.5511,0.1199,0.9925,-0.025,-0.2925,3.3988,-0.2983,0.2567,-2.0883,-0.4418,-0.1726,4.3913,-0.3233,dws
1772309647,1.2413,-1.4512,-2.6658,0.1129,0.9929,-0.0386,0.1863,-0.3199,0.0341,0.6862,0.758,-0.2505,0.2993,0.673,-0.0045,dws
1772309647,1.2025,-1.4534,-2.7244,0.1093,0.9931,-0.0422,0.2348,-0.5959,0.3392,-0.1508,0.6528,-0.179,0.3441,0.3972,0.297,dws
1772309647,1.253,-1.4565,-2.6755,0.1084,0.9935,-0.0356,0.2512,0.0801,0.0841,-0.3166,-0.1684,0.089,0.3595,1.0735,0.0484,dws
1772309647,1.2872,-1.4558,-2.6384,0.1101,0.9934,-0.0321,0.0507,0.0326,-0.0986,-0.0951,-0.1297,0.0455,0.1608,1.026,-0.1307,dws
1772309647,1.2887,-1.4557,-2.6353,0.1103,0.9934,-0.032,-0.034,-0.0085,-0.0986,0.0567,0.0215,-0.008,0.0763,0.9849,-0.1306,dws
1772309647,1.2737,-1.4556,-2.6518,0.1099,0.9934,-0.0337,-0.0019,0.0281,-0.0229,0.1173,0.069,-0.036,0.108,1.0215,-0.0565,dws
1772309647,1.2529,-1.4553,-2.6728,0.1095,0.9933,-0.036,0.0292,0.0359,0.0631,0.1038,-0.0699,-0.0149,0.1387,1.0292,0.0271,dws
1772309647,1.2409,-1.4553,-2.6835,0.109,0.9933,-0.0373,-0.012,-0.0112,0.0854,0.0074,-0.009,-0.0252,0.097,0.9822,0.0481,dws
1772309647,1.2451,-1.4558,-2.6803,0.1087,0.9934,-0.0367,-0.0048,-0.0209,0.0457,-0.0466,0.0724,-0.0085,0.1038,0.9725,0.009,dws
1772309647,1.2589,-1.4562,-2.6679,0.1088,0.9934,-0.0351,0.0077,0.0056,0.0287,-0.1383,0.1555,0.015,0.1165,0.999,-0.0064,dws
1772309647,1.2957,-1.4572,-2.6368,0.1091,0.9936,-0.0308,-0.0299,-0.0261,0.0087,-0.1182,0.1491,-0.0076,0.0792,0.9674,-0.0221,dws
1772309647,1.3172,-1.4581,-2.6167,0.1089,0.9937,-0.0282,-0.0163,-0.0088,0.0246,-0.1394,0.0849,-0.0118,0.0925,0.9849,-0.0036,dws
1772309647,1.3467,-1.4589,-2.5898,0.1089,0.9937,-0.0248,0.0147,0.0087,0.0297,-0.1733,0.1947,0.0126,0.1236,1.0024,0.0048,dws
1772309647,1.3809,-1.4594,-2.5591,0.1091,0.9938,-0.021,-0.0326,-0.0039,0.0235,-0.134,0.0934,0.0053,0.0765,0.9899,0.0025,dws
1772309647,1.3986,-1.4603,-2.542,0.1087,0.9939,-0.0189,-0.0809,-0.0141,-0.0348,-0.0549,-0.0541,-0.0426,0.0278,0.9798,-0.0537,dws
1772309647,1.394,-1.4609,-2.5416,0.1079,0.994,-0.0193,-0.0165,-0.0024,-0.0259,0.0695,-0.5689,-0.0181,0.0915,0.9916,-0.0452,dws
1772309647,1.3517,-1.461,-2.5672,0.107,0.994,-0.0238,0.0296,-0.032,0.0063,0.109,-0.8562,-0.0112,0.1366,0.962,-0.0175,dws
1772309647,1.3489,-1.4612,-2.562,0.1067,0.994,-0.0241,0.0472,0.0797,-0.0158,-0.0523,0.0384,-0.0189,0.1539,1.0737,-0.0399,dws
1772309647,1.356,-1.4611,-2.5588,0.107,0.994,-0.0233,0.1117,0.0454,-0.0499,-0.0015,0.2343,0.025,0.2187,1.0394,-0.0733,dws
1772309647,1.3478,-1.4595,-2.5655,0.1083,0.9938,-0.0246,0.0607,-0.0196,0.0322,0.1608,-0.7018,0.0527,0.1691,0.9743,0.0077,dws
1772309647,1.33,-1.4601,-2.5702,0.1072,0.9939,-0.0263,-0.1877,0.0191,0.0994,-0.0234,-0.2751,-0.0064,-0.0804,1.013,0.0731,dws
1772309647,1.3205,-1.4606,-2.5766,0.1065,0.9939,-0.0272,0.0158,0.0288,-0.0444,-0.0055,-0.1537,-0.1007,0.1224,1.0228,-0.0717,dws
1772309647,1.3141,-1.4619,-2.5796,0.1051,0.9941,-0.0276,0.0665,-0.0366,-0.0426,0.0648,-0.1654,-0.1177,0.1716,0.9574,-0.0701,dws
1772309647,1.2886,-1.463,-2.6011,0.1033,0.9942,-0.03,0.0664,0.0443,-0.0142,0.1279,-0.3053,-0.0418,0.1697,1.0385,-0.0442,dws
1772309647,1.267,-1.463,-2.6179,0.1026,0.9942,-0.0322,0.0286,0.0103,0.0546,0.0171,-0.1287,-0.053,0.1313,1.0045,0.0224,dws
1772309647,1.2654,-1.4646,-2.6193,0.1011,0.9944,-0.0319,0.0108,-0.0079,0.039,-0.0268,0.0663,-0.0938,0.1119,0.9864,0.0071,dws
1772309647,1.2643,-1.467,-2.6212,0.0988,0.9946,-0.0313,0.0513,0.0121,-0.0315,-0.101,-0.1641,-0.1783,0.1501,1.0067,-0.0628,dws
1772309647,1.2786,-1.47,-2.5982,0.0964,0.9949,-0.029,0.1802,-0.0368,-0.0126,-0.0993,-0.4333,-0.0356,0.2766,0.9582,-0.0416,dws
1772309647,1.27,-1.4702,-2.6036,0.0959,0.9949,-0.0298,0.0775,-0.0158,-0.0532,0.1247,0.1055,-0.0126,0.1734,0.9791,-0.083,dws
1772309647,1.2453,-1.4701,-2.6346,0.0953,0.9949,-0.0321,-0.0536,-0.0102,0.0077,0.1311,0.3924,-0.066,0.0417,0.9847,-0.0244,dws
1772309647,1.2302,-1.4712,-2.6579,0.0937,0.995,-0.0332,-0.0491,0.0203,0.0604,0.0545,0.4044,-0.0763,0.0446,1.0153,0.0272,dws
1772309647,1.2279,-1.4725,-2.6664,0.0925,0.9952,-0.033,0.0106,0.0395,0.0312,-0.0041,0.1995,-0.0657,0.103,1.0347,-0.0018,dws
1772309647,1.2221,-1.4735,-2.6768,0.0913,0.9953,-0.0332,-0.021,0.0115,-0.0356,0.0379,0.216,-0.0714,0.0703,1.0068,-0.0688,dws
1772309647,1.212,-1.4745,-2.6896,0.09,0.9954,-0.0337,-0.0562,-0.029,-0.0349,0.0604,0.1022,-0.064,0.0338,0.9663,-0.0687,dws
1772309647,1.1938,-1.4751,-2.7094,0.0888,0.9954,-0.0352,-0.0539,-0.024,-0.0307,0.0902,0.0393,-0.0582,0.0349,0.9714,-0.0659,dws
1772309647,1.1688,-1.4753,-2.7348,0.0878,0.9954,-0.0373,-0.0407,-0.0103,-0.0183,0.1262,0.0118,-0.053,0.0471,0.9852,-0.0556,dws
1772309647,1.1387,-1.4752,-2.7654,0.0867,0.9954,-0.04,-0.0174,-0.0091,-0.0106,0.1455,0.0238,-0.0617,0.0693,0.9863,-0.0505,dws
1772309647,1.1073,-1.4751,-2.7978,0.0855,0.9954,-0.0427,0.0143,0.0022,0.0091,0.1381,0.0723,-0.0597,0.0998,0.9976,-0.0336,dws
1772309647,1.084,-1.4752,-2.8236,0.0844,0.9954,-0.0446,0.0352,0.0119,0.0287,0.0842,0.1378,-0.0614,0.1196,1.0074,-0.0159,dws
1772309647,1.0689,-1.4755,-2.8414,0.0834,0.9955,-0.0458,0.0378,0.0059,0.0363,0.0545,0.1293,-0.0485,0.1213,1.0014,-0.0095,dws
1772309647,1.0594,-1.4758,-2.8536,0.0827,0.9955,-0.0464,0.0147,0.0045,0.034,0.0386,0.129,-0.0335,0.0974,1,-0.0124,dws
1772309647,1.0551,-1.476,-2.8605,0.0823,0.9955,-0.0467,-0.0169,0.0042,0.0244,0.0107,0.1208,-0.0208,0.0655,0.9997,-0.0223,dws
1772309647,1.0532,-1.4762,-2.8646,0.0821,0.9955,-0.0467,-0.0396,-0.0028,-0.0079,0.0214,0.0951,-0.0184,0.0425,0.9928,-0.0546,dws
1772309647,1.0463,-1.4763,-2.8731,0.0817,0.9955,-0.0473,-0.0587,-0.0094,-0.0233,0.0502,0.0623,-0.0235,0.023,0.9861,-0.0706,dws
1772309648,1.0323,-1.4761,-2.8881,0.0812,0.9955,-0.0485,-0.0554,-0.013,-0.0125,0.0794,0.0299,-0.0318,0.0258,0.9825,-0.061,dws
1772309648,1.015,-1.4759,-2.9059,0.0805,0.9955,-0.05,-0.04,-0.0065,0.0139,0.0731,0.0066,-0.0327,0.0405,0.989,-0.0361,dws
1772309648,1.0009,-1.4757,-2.92,0.08,0.9955,-0.0512,-0.0177,0.0126,0.0279,0.0517,0.0001,-0.0216,0.0622,1.0081,-0.0233,dws
1772309648,0.9913,-1.4755,-2.9298,0.0796,0.9955,-0.0521,-0.0122,0.0035,0.0194,0.0374,0.0146,-0.0147,0.0674,0.999,-0.0327,dws
1772309648,0.9842,-1.4754,-2.9372,0.0794,0.9954,-0.0527,-0.0159,-0.0041,0.0076,0.0311,0.0065,-0.0119,0.0635,0.9914,-0.0451,dws
1772309648,0.978,-1.4753,-2.9434,0.0791,0.9954,-0.0533,-0.0184,0.0029,-0.0031,0.0259,-0.0058,-0.0146,0.0606,0.9984,-0.0563,dws
1772309648,0.9707,-1.4753,-2.9506,0.0787,0.9954,-0.0539,-0.0077,0.0107,-0.0069,0.0328,-0.0098,-0.0204,0.071,1.0061,-0.0607,dws
1772309648,0.9627,-1.4753,-2.9586,0.0782,0.9954,-0.0545,0.01,0.0055,0.0044,0.0232,0.0069,-0.022,0.0882,1.001,-0.05,dws
1772309648,0.9576,-1.4753,-2.9639,0.078,0.9954,-0.0549,0.0359,-0.003,0.0054,0.0162,0.0269,-0.0066,0.1139,0.9925,-0.0494,dws
1772309648,0.9564,-1.4753,-2.9659,0.0779,0.9954,-0.055,0.0258,-0.0053,0.0016,0.004,0.0446,0.0008,0.1037,0.9902,-0.0534,dws
1772309648,0.9558,-1.4752,-2.9673,0.0779,0.9954,-0.0551,0.0015,-0.0009,-0.0113,0.0126,0.0276,-0.0002,0.0795,0.9945,-0.0663,dws
1772309648,0.9531,-1.4751,-2.9703,0.0779,0.9954,-0.0553,-0.0133,-0.0034,-0.0092,0.0152,0.0084,-0.0035,0.0646,0.992,-0.0645,dws
1772309648,0.9527,-1.4751,-2.9711,0.0779,0.9954,-0.0554,-0.0236,-0.0027,-0.0128,0.0007,0.0173,-0.0105,0.0543,0.9927,-0.0681,dws
1772309648,0.9523,-1.4751,-2.9716,0.0778,0.9954,-0.0554,-0.0236,-0.0062,-0.0163,0.0046,-0.0188,-0.0049,0.0542,0.9892,-0.0717,dws
1772309648,0.9516,-1.4751,-2.9715,0.0778,0.9954,-0.0555,-0.0169,-0.0148,-0.0031,-0.006,-0.0471,0.0034,0.0609,0.9806,-0.0585,dws
1772309648,0.9529,-1.4752,-2.9692,0.0778,0.9954,-0.0553,-0.0218,0.0011,0.0016,-0.0197,-0.0534,0.0106,0.056,0.9965,-0.0537,dws
1772309648,0.9566,-1.4754,-2.9645,0.0778,0.9955,-0.0549,-0.0421,0.0086,-0.0133,-0.0357,-0.0462,0.003,0.0357,1.0041,-0.0681,dws
1772309648,0.9585,-1.4757,-2.9614,0.0777,0.9955,-0.0546,-0.0368,0.0015,-0.021,-0.0205,-0.0829,-0.0011,0.0408,0.9969,-0.0756,dws
1772309648,0.9601,-1.476,-2.9578,0.0775,0.9955,-0.0543,-0.0105,-0.0041,-0.0074,-0.0265,-0.1002,0.0048,0.067,0.9914,-0.0616,dws
1772309648,0.9638,-1.4763,-2.9523,0.0775,0.9955,-0.0538,0.0025,-0.0149,-0.0101,-0.0249,-0.0769,0.0104,0.08,0.9806,-0.0639,dws
1772309648,0.9665,-1.4764,-2.9483,0.0775,0.9956,-0.0535,0.0032,-0.0104,-0.015,-0.0154,-0.0536,0.0014,0.0807,0.9852,-0.0685,dws
1772309648,0.966,-1.4765,-2.9478,0.0775,0.9956,-0.0536,0.0204,-0.0081,-0.0148,0.0075,-0.0658,-0.0018,0.0979,0.9874,-0.0683,dws
1772309648,0.9625,-1.4764,-2.9503,0.0774,0.9955,-0.0539,0.0348,-0.0012,0.0002,0.0135,-0.0203,-0.0012,0.1122,0.9943,-0.0537,dws
1772309648,0.9622,-1.4763,-2.9508,0.0774,0.9955,-0.0539,0.0342,0.0025,0.0117,-0.0054,0.0199,0.0088,0.1116,0.9981,-0.0422,dws
1772309648,0.9659,-1.4764,-2.9478,0.0775,0.9956,-0.0536,0.02,0.0071,0.0154,-0.0189,0.0518,-0.0001,0.0975,1.0027,-0.0381,dws
1772309648,0.9703,-1.4767,-2.9445,0.0775,0.9956,-0.0531,0.0292,0.0115,0.0133,-0.0259,0.0592,-0.0033,0.1067,1.0071,-0.0398,dws
1772309648,0.9761,-1.477,-2.9399,0.0775,0.9956,-0.0524,0.0206,0.0018,0.0052,-0.0297,0.0586,0.0034,0.0981,0.9975,-0.0473,dws
1772309648,0.9819,-1.4772,-2.9349,0.0777,0.9956,-0.0519,0.0036,-0.0111,-0.0061,-0.0197,0.0275,0.0126,0.0813,0.9845,-0.058,dws
1772309648,0.9874,-1.4772,-2.93,0.078,0.9956,-0.0515,-0.0058,-0.015,0.0023,-0.0156,0.036,0.0062,0.0722,0.9807,-0.0492,dws
1772309648,0.9929,-1.4772,-2.9253,0.0783,0.9956,-0.0511,-0.0012,-0.0092,0.002,-0.0173,0.0353,0.0081,0.0771,0.9864,-0.0491,dws
1772309648,0.9983,-1.4772,-2.9204,0.0786,0.9956,-0.0506,-0.0133,-0.0077,0.0086,-0.0203,0.0214,0.0063,0.0652,0.9879,-0.0421,dws
1772309648,1.0041,-1.4773,-2.9149,0.0788,0.9956,-0.0501,-0.0161,0.001,0.0203,-0.0328,0.0142,0.0081,0.0627,0.9966,-0.0298,dws
1772309648,1.0125,-1.4776,-2.9069,0.0789,0.9957,-0.0493,-0.0112,0.0198,0.0273,-0.0527,0.0274,0.0053,0.0677,1.0154,-0.022,dws
1772309648,1.0241,-1.4781,-2.8956,0.079,0.9957,-0.0481,-0.0075,0.0084,0.0201,-0.0571,0.0244,0.0011,0.0716,1.0041,-0.028,dws
1772309648,1.0339,-1.4787,-2.886,0.0791,0.9958,-0.0471,-0.0023,-0.0071,0.0097,-0.0491,-0.0074,0.0004,0.0767,0.9886,-0.0374,dws
1772309648,1.0415,-1.4791,-2.878,0.079,0.9958,-0.0462,-0.0035,-0.009,0.0067,-0.0413,-0.029,0.0013,0.0755,0.9868,-0.0395,dws
1772309648,1.0501,-1.4798,-2.8679,0.0788,0.9959,-0.0452,-0.0135,-0.0087,0.0092,-0.0459,-0.08,-0.0098,0.0653,0.9871,-0.036,dws
1772309648,1.0515,-1.4805,-2.8657,0.0783,0.9959,-0.0447,0.0169,0.0014,0.0167,-0.0107,-0.0012,-0.0364,0.0951,0.9973,-0.028,dws
1772309648,1.0505,-1.4813,-2.8676,0.0776,0.996,-0.0444,0.0546,0.0085,0.0462,-0.0174,0.1027,-0.0343,0.1322,1.0045,0.0017,dws
1772309648,1.0575,-1.4822,-2.8631,0.0771,0.9961,-0.0434,0.0404,0.0005,0.0591,-0.0657,0.123,-0.0302,0.1175,0.9966,0.0157,dws
1772309648,1.0749,-1.4835,-2.8477,0.0767,0.9962,-0.0415,0.0354,-0.0138,0.0479,-0.1149,0.084,-0.0206,0.1121,0.9824,0.0064,dws
1772309648,1.0993,-1.4851,-2.8248,0.0762,0.9963,-0.0389,0.0327,-0.0171,0.0371,-0.1306,0.0801,-0.0299,0.109,0.9793,-0.0017,dws
1772309648,1.1251,-1.4869,-2.8007,0.0756,0.9965,-0.0361,0.0229,-0.0073,0.0264,-0.1258,0.1081,-0.0426,0.0985,0.9892,-0.0097,dws
1772309648,1.1454,-1.489,-2.7827,0.0744,0.9967,-0.0337,0.0193,-0.007,0.0267,-0.095,0.1198,-0.0792,0.0937,0.9896,-0.0071,dws
1772309648,1.1592,-1.4914,-2.7713,0.0727,0.9968,-0.0317,0.034,-0.0102,0.0402,-0.0914,0.1257,-0.0964,0.1067,0.9866,0.0084,dws
1772309648,1.1735,-1.4939,-2.7593,0.0708,0.997,-0.0297,0.0475,-0.0219,0.0237,-0.0901,0.1143,-0.0962,0.1183,0.9751,-0.006,dws
1772309648,1.1867,-1.4962,-2.748,0.0691,0.9972,-0.0279,0.0547,-0.0305,0.0177,-0.0778,0.0621,-0.0822,0.1238,0.9667,-0.0102,dws
1772309648,1.1966,-1.4982,-2.7388,0.0675,0.9974,-0.0265,0.0441,-0.0282,0.0523,-0.0622,0.0205,-0.0789,0.1116,0.9691,0.0258,dws
1772309648,1.2047,-1.5001,-2.7313,0.0659,0.9975,-0.0253,0.037,-0.0181,0.0526,-0.0529,0.0358,-0.0774,0.1029,0.9794,0.0274,dws
1772309648,1.2066,-1.5018,-2.73,0.0644,0.9976,-0.0246,0.0292,-0.0211,0.0177,-0.0121,0.0308,-0.078,0.0936,0.9765,-0.0069,dws
1772309649,1.1984,-1.5034,-2.7386,0.0628,0.9977,-0.0245,0.0189,-0.026,0.0434,0.0112,0.0054,-0.0882,0.0817,0.9717,0.0189,dws
1772309649,1.1833,-1.505,-2.754,0.0609,0.9978,-0.0249,0.0086,-0.0072,0.0438,0.0321,0.0337,-0.0978,0.0695,0.9906,0.019,dws
1772309649,1.1568,-1.5065,-2.7813,0.0588,0.9979,-0.0258,0.0017,0.0125,0.0269,0.0735,0.0386,-0.1138,0.0605,1.0104,0.0011,dws
1772309649,1.1173,-1.5081,-2.8215,0.0563,0.998,-0.0275,-0.0059,-0.0152,0.0469,0.0996,0.0155,-0.1371,0.0504,0.9829,0.0195,dws
1772309649,1.0633,-1.5094,-2.8759,0.0536,0.9981,-0.0298,0.0193,-0.019,0.026,0.1442,0.0182,-0.128,0.0729,0.9791,-0.0038,dws
1772309649,0.9999,-1.5096,-2.9394,0.0514,0.9981,-0.033,0.0313,-0.0079,-0.0077,0.1758,-0.0185,-0.0995,0.0827,0.9902,-0.0408,dws
1772309649,0.9351,-1.5094,-3.0036,0.0494,0.9981,-0.0364,-0.0147,-0.0165,0.0387,0.1665,-0.0593,-0.1085,0.0347,0.9816,0.0022,dws
1772309649,0.8668,-1.5094,-3.0706,0.0468,0.9981,-0.0397,-0.0449,-0.0102,0.0262,0.1666,-0.0827,-0.1451,0.0019,0.9879,-0.0135,dws
1772309649,0.7906,-1.5094,3.1384,0.0436,0.9981,-0.0432,-0.0243,0.0142,0.0198,0.1666,-0.1416,-0.159,0.0193,1.0123,-0.0234,dws
1772309649,0.7173,-1.5092,3.0683,0.0405,0.9981,-0.0464,-0.0021,-0.0159,0.0385,0.1391,-0.1908,-0.1471,0.0383,0.9823,-0.0079,dws
1772309649,0.653,-1.509,3.0079,0.0375,0.9981,-0.0491,0.0205,-0.0357,0.0114,0.1189,-0.205,-0.1263,0.058,0.9624,-0.0376,dws
1772309649,0.6005,-1.5083,2.9597,0.0353,0.998,-0.0515,0.0357,-0.0078,-0.0132,0.1214,-0.2503,-0.0767,0.071,0.9902,-0.0647,dws
1772309649,0.5591,-1.5067,2.9239,0.034,0.9979,-0.0543,0.0154,0.0082,-0.0104,0.1386,-0.3154,-0.0325,0.0494,1.0062,-0.0647,dws
1772309649,0.5224,-1.5044,2.8934,0.0331,0.9978,-0.0575,-0.0249,-0.0056,-0.028,0.1664,-0.2955,-0.0238,0.0082,0.9922,-0.0855,dws
1772309649,0.4818,-1.5014,2.858,0.0321,0.9976,-0.0615,-0.0631,-0.0141,-0.076,0.2234,-0.2536,-0.0434,-0.0309,0.9835,-0.1375,dws
1772309649,0.4303,-1.4973,2.8117,0.0306,0.9973,-0.0668,-0.0724,0.0175,-0.0685,0.2931,-0.2842,-0.0733,-0.0418,1.0148,-0.1353,dws
1772309649,0.3738,-1.4924,2.7611,0.0286,0.9969,-0.0729,-0.0692,0.0175,-0.0061,0.2924,-0.3355,-0.0912,-0.0406,1.0144,-0.079,dws
1772309649,0.3226,-1.4881,2.717,0.0262,0.9966,-0.0783,-0.0587,-0.0104,0.0133,0.2402,-0.3871,-0.0964,-0.0325,0.9862,-0.0651,dws
1772309649,0.2777,-1.4844,2.68,0.0237,0.9963,-0.083,-0.0373,-0.0021,-0.0013,0.2102,-0.4025,-0.0916,-0.0136,0.9942,-0.0843,dws
1772309649,0.2406,-1.4811,2.6501,0.0213,0.996,-0.087,-0.0412,0.0058,-0.0118,0.1796,-0.3567,-0.0795,-0.0199,1.0017,-0.0989,dws
1772309649,0.2077,-1.4781,2.6245,0.0191,0.9957,-0.0905,-0.0513,0.018,-0.0226,0.1758,-0.3831,-0.0919,-0.0322,1.0137,-0.1131,dws
1772309649,0.172,-1.4748,2.5961,0.0164,0.9954,-0.0945,-0.0485,0.0115,-0.0205,0.2128,-0.3462,-0.1058,-0.0321,1.0069,-0.115,dws
1772309649,0.137,-1.4705,2.5672,0.0137,0.995,-0.0992,-0.0446,0.0134,-0.02,0.2558,-0.2967,-0.1046,-0.0309,1.0084,-0.1192,dws
1772309649,0.1067,-1.4654,2.5424,0.0112,0.9944,-0.1047,-0.0383,0.0071,-0.0022,0.2778,-0.281,-0.0864,-0.0271,1.0015,-0.1068,dws
1772309649,0.082,-1.4601,2.5233,0.009,0.9939,-0.1101,-0.0657,-0.0075,0.0302,0.262,-0.2846,-0.079,-0.0566,0.9864,-0.0799,dws
1772309649,0.0585,-1.4551,2.5053,0.0068,0.9933,-0.1152,-0.0723,-0.0162,0.0336,0.2655,-0.2862,-0.0849,-0.0656,0.9771,-0.0816,dws
1772309649,0.0365,-1.4499,2.4886,0.0044,0.9927,-0.1206,-0.0592,-0.0068,0.0331,0.2717,-0.2421,-0.0831,-0.0548,0.9859,-0.0874,dws
1772309649,0.0193,-1.4443,2.4756,0.0024,0.992,-0.1261,-0.0474,-0.002,0.0231,0.2949,-0.2173,-0.057,-0.045,0.99,-0.1031,dws
1772309649,0.0073,-1.4385,2.4686,0.001,0.9913,-0.1319,-0.0485,0.0069,0.0388,0.2938,-0.2947,-0.0197,-0.0475,0.9981,-0.0931,dws
1772309649,-0.0002,-1.433,2.4678,0,0.9905,-0.1374,-0.0363,-0.008,0.0539,0.2545,-0.3533,0.0106,-0.0363,0.9825,-0.0835,dws
1772309649,-0.0043,-1.4283,2.4699,-0.0006,0.9899,-0.142,-0.0603,-0.0069,0.0555,0.2196,-0.2875,0.0159,-0.0609,0.9829,-0.0865,dws
1772309649,-0.009,-1.424,2.4699,-0.0013,0.9892,-0.1462,-0.0678,0.0071,0.0604,0.2169,-0.2032,-0.0113,-0.0691,0.9964,-0.0858,dws
1772309649,-0.0151,-1.42,2.4687,-0.0023,0.9887,-0.1502,-0.0679,-0.0036,0.0748,0.183,-0.2542,-0.011,-0.0701,0.9851,-0.0754,dws
1772309649,-0.0208,-1.4166,2.4676,-0.0032,0.9881,-0.1536,-0.051,-0.0008,0.0717,0.1647,-0.2101,-0.0067,-0.0542,0.9873,-0.0818,dws
1772309649,-0.0242,-1.4138,2.4684,-0.0038,0.9877,-0.1563,-0.0441,0.0216,0.0995,0.1068,-0.2086,0.0151,-0.0479,1.0093,-0.0568,dws
1772309649,-0.0248,-1.4128,2.4716,-0.0039,0.9875,-0.1573,-0.0418,0.0201,0.1712,-0.0028,-0.1798,0.032,-0.0457,1.0076,0.0139,dws
1772309649,-0.0228,-1.414,2.4766,-0.0036,0.9877,-0.1561,-0.0387,0.0145,0.1678,-0.1035,-0.1224,0.0547,-0.0423,1.0022,0.0117,dws
1772309649,-0.0167,-1.4163,2.485,-0.0026,0.9881,-0.1538,-0.0295,-0.0006,0.1131,-0.1064,-0.0882,0.0801,-0.0321,0.9874,-0.0407,dws
1772309649,-0.0068,-1.4183,2.4964,-0.001,0.9884,-0.1519,-0.0312,-0.0398,0.0838,-0.0854,-0.0638,0.1057,-0.0323,0.9486,-0.0681,dws
1772309649,0.009,-1.4199,2.5135,0.0014,0.9886,-0.1504,-0.0222,-0.0394,0.088,-0.0673,-0.0296,0.1567,-0.0209,0.9493,-0.0624,dws
1772309649,0.0328,-1.4213,2.5372,0.0049,0.9888,-0.1489,-0.0277,-0.035,0.1146,-0.0682,0.058,0.2032,-0.0228,0.9539,-0.0343,dws
1772309649,0.0638,-1.4225,2.5669,0.0094,0.989,-0.1474,-0.0294,-0.0345,0.1195,-0.0723,0.1071,0.2456,-0.02,0.9545,-0.0279,dws
1772309649,0.1016,-1.4242,2.6026,0.0148,0.9893,-0.1454,-0.0769,-0.0306,0.1197,-0.1206,0.1214,0.2679,-0.062,0.9586,-0.0256,dws
1772309649,0.1412,-1.4268,2.6418,0.0202,0.9897,-0.1421,-0.1103,-0.0448,0.1587,-0.2062,-0.0308,0.2793,-0.0901,0.9448,0.0167,dws
1772309649,0.1863,-1.4307,2.6882,0.0259,0.9902,-0.1372,-0.0754,-0.0523,0.185,-0.2681,-0.0122,0.3172,-0.0496,0.9379,0.0478,dws
1772309649,0.2437,-1.435,2.7447,0.0327,0.9908,-0.1314,-0.0291,-0.0346,0.1507,-0.3235,0.1377,0.3663,0.0035,0.9562,0.0193,dws
1772309649,0.3175,-1.4402,2.816,0.0407,0.9915,-0.1237,-0.0389,-0.0859,0.1648,-0.4509,0.1572,0.4082,0.0018,0.9056,0.0411,dws
1772309649,0.4105,-1.4471,2.9067,0.0493,0.9924,-0.1132,-0.0789,-0.1415,0.2153,-0.5944,0.1623,0.4303,-0.0296,0.8509,0.1022,dws
1772309649,0.5229,-1.454,3.016,0.0582,0.9932,-0.101,-0.1121,-0.16,0.1346,-0.5694,0.2248,0.4369,-0.0539,0.8332,0.0337,dws
1772309649,0.638,-1.4576,3.1271,0.0673,0.9936,-0.0908,-0.1548,-0.1242,-0.0375,-0.4544,0.2513,0.4491,-0.0875,0.8694,-0.1283,dws
1772309649,0.7591,-1.4588,-3.0391,0.0769,0.9937,-0.0811,-0.2168,-0.1667,0.0521,-0.517,0.2148,0.4871,-0.1399,0.827,-0.029,dws
1772309650,0.8945,-1.4588,-2.9056,0.0872,0.9937,-0.07,-0.2369,-0.167,0.2906,-0.5403,0.0719,0.5325,-0.1497,0.8267,0.2206,dws
1772309650,1.0179,-1.4549,-2.7813,0.0984,0.9933,-0.0607,-0.2519,-0.2385,-0.0356,-0.4025,-0.0993,0.6063,-0.1534,0.7548,-0.0963,dws
1772309650,1.1178,-1.4471,-2.6767,0.111,0.9924,-0.054,-0.2262,-0.3004,-0.0167,-0.325,-0.2665,0.6841,-0.1152,0.6919,-0.0707,dws
1772309650,1.1944,-1.4365,-2.5937,0.1245,0.991,-0.0492,-0.273,-0.2717,0.0821,-0.214,-0.3656,0.7162,-0.1485,0.7193,0.0329,dws
1772309650,1.2383,-1.4239,-2.54,0.1384,0.9892,-0.0478,-0.2694,-0.2538,-0.0149,-0.0607,-0.544,0.7345,-0.131,0.7354,-0.0627,dws
1772309650,1.2613,-1.4104,-2.5044,0.1521,0.9872,-0.0486,-0.2625,-0.2528,0.0128,-0.0885,-0.646,0.7175,-0.1104,0.7344,-0.0358,dws
1772309650,1.308,-1.3987,-2.4456,0.1654,0.9852,-0.0445,-0.2219,-0.1952,0.4656,-0.6064,-0.4724,0.6975,-0.0565,0.7901,0.4211,dws
1772309650,1.4284,-1.3894,-2.3133,0.1786,0.9836,-0.0256,-0.18,-0.0848,0.8991,-1.5102,-0.5385,0.6733,-0.0014,0.8988,0.8735,dws
1772309650,1.6197,-1.3789,-2.1057,0.1905,0.9817,0.0093,-0.2127,0.1136,0.8163,-2.3445,-0.7433,0.5205,-0.0222,1.0952,0.8256,dws
1772309650,1.8711,-1.3622,-1.8331,0.1978,0.9783,0.0612,-0.2905,0.5457,0.6487,-3.1757,-0.7906,0.1473,-0.0927,1.524,0.7099,dws
1772309650,2.1224,-1.3397,-1.5576,0.1951,0.9734,0.12,-0.3899,1.0876,0.3323,-3.1602,-0.929,-0.6832,-0.1949,2.0611,0.4523,dws
1772309650,2.349,-1.3181,-1.3152,0.178,0.9682,0.1755,-0.1262,1.0544,-0.3896,-2.7573,0.3024,-1.0527,0.0518,2.0227,-0.2141,dws
1772309650,2.5356,-1.2929,-1.1304,0.1563,0.9616,0.2255,0.2243,0.7046,-0.7706,-2.2381,0.297,-1.03,0.3806,1.6662,-0.5451,dws
1772309650,2.6722,-1.2708,-0.9938,0.1336,0.9554,0.2635,-0.1181,0.6309,-0.6516,-1.6982,0.2177,-1.2212,0.0155,1.5863,-0.388,dws
1772309650,2.79,-1.2534,-0.8715,0.1075,0.95,0.293,-0.3322,1.1208,-0.1022,-1.4168,-0.1074,-1.5209,-0.2247,2.0708,0.1909,dws
1772309650,2.9055,-1.2366,-0.7498,0.0767,0.9447,0.3189,-0.1488,0.9963,0.1114,-1.3089,0.2736,-1.712,-0.0721,1.941,0.4302,dws
1772309650,3.0159,-1.2216,-0.6333,0.0429,0.9397,0.3394,0.049,0.39,-0.2953,-0.8168,-0.4117,-1.8508,0.0919,1.3296,0.0442,dws
1772309650,3.1026,-1.21,-0.5274,0.0138,0.9356,0.3527,0.3248,0.0939,-0.3465,-0.7431,-0.6771,-1.6926,0.3385,1.0295,0.0062,dws
1772309650,-3.1149,-1.1956,-0.4435,-0.0098,0.9304,0.3663,0.4085,-0.0786,-0.1366,-0.6714,-0.6145,-1.3114,0.3987,0.8519,0.2297,dws
1772309650,-3.0784,-1.1839,-0.3865,-0.0238,0.9261,0.3766,0.414,-0.2353,-0.2136,-0.4086,-1.0182,-0.9289,0.3902,0.6908,0.163,dws
1772309650,-3.0557,-1.176,-0.3417,-0.033,0.9231,0.3832,0.2163,-0.2729,-0.2499,-0.268,-0.8019,-0.8476,0.1833,0.6502,0.1333,dws
1772309650,-3.0333,-1.1702,-0.3019,-0.0421,0.9208,0.3877,0.3101,-0.3557,-0.2963,-0.1515,-0.6933,-0.738,0.268,0.5651,0.0913,dws
1772309650,-3.0187,-1.1676,-0.2698,-0.0481,0.9198,0.3894,0.3864,-0.4523,-0.3606,0.0374,-0.8056,-0.5521,0.3383,0.4675,0.0288,dws
1772309650,-3.0142,-1.169,-0.2464,-0.0497,0.9204,0.3879,0.2977,-0.4921,-0.3919,0.2351,-0.9075,-0.3496,0.248,0.4282,-0.004,dws
1772309650,-3.0173,-1.1754,-0.23,-0.0478,0.9228,0.3822,0.1704,-0.4654,-0.4138,0.4872,-0.9125,-0.1913,0.1226,0.4574,-0.0316,dws
1772309650,-3.0273,-1.1868,-0.2211,-0.0427,0.9272,0.3722,0.1345,-0.4777,-0.3743,0.6907,-0.9373,-0.0029,0.0918,0.4494,-0.002,dws
1772309650,-3.0478,-1.2023,-0.2215,-0.0337,0.9329,0.3586,0.1136,-0.4507,-0.3199,0.8587,-1.1143,0.1725,0.0798,0.4821,0.0387,dws
1772309650,-3.081,-1.2209,-0.2314,-0.0208,0.9394,0.3422,0.056,-0.4015,-0.2711,0.9608,-1.285,0.3136,0.0352,0.5379,0.0711,dws
1772309650,-3.124,-1.2408,-0.2487,-0.0057,0.946,0.324,-0.0167,-0.3729,-0.2173,1.024,-1.378,0.3251,-0.0225,0.5731,0.1067,dws
1772309650,3.1146,-1.2624,-0.2671,0.0082,0.9528,0.3034,-0.0146,-0.3215,-0.1922,1.1715,-1.3364,0.2315,-0.0064,0.6313,0.1112,dws
1772309650,3.0735,-1.2877,-0.2834,0.019,0.9602,0.2787,0.0367,-0.222,-0.1337,1.3896,-1.22,0.134,0.0557,0.7382,0.145,dws
1772309650,3.0348,-1.317,-0.2999,0.0268,0.968,0.2496,0.0297,-0.1432,-0.0066,1.5877,-1.0716,0.0485,0.0565,0.8247,0.243,dws
1772309650,2.9951,-1.3494,-0.3199,0.0321,0.9756,0.2172,-0.046,-0.0882,0.1353,1.6597,-1.0263,0.0173,-0.0139,0.8874,0.3526,dws
1772309650,2.9497,-1.3799,-0.3436,0.0362,0.9818,0.1863,-0.1881,-0.1258,0.287,1.3794,-1.1833,-0.0648,-0.1519,0.856,0.4733,dws
1772309650,2.9146,-1.4026,-0.3553,0.0377,0.9859,0.1631,-0.2881,-0.2082,0.3742,0.9133,-1.1653,-0.2137,-0.2505,0.7777,0.5373,dws
1772309650,2.9078,-1.4187,-0.3405,0.0351,0.9885,0.1474,-0.1852,-0.2659,0.2522,0.653,-0.9373,-0.3811,-0.1501,0.7225,0.3996,dws
1772309650,2.9311,-1.4333,-0.3019,0.0287,0.9906,0.1341,0.0442,-0.3412,0.1331,0.6696,-0.5675,-0.4682,0.0728,0.6494,0.2672,dws
1772309650,2.9691,-1.448,-0.2547,0.021,0.9925,0.1207,0.2614,-0.3764,0.1794,0.6794,-0.3816,-0.3844,0.2824,0.616,0.3001,dws
1772309650,2.9902,-1.462,-0.2248,0.0164,0.9941,0.1074,0.3661,-0.3635,0.2129,0.6147,-0.5605,-0.1947,0.3824,0.6306,0.3203,dws
1772309650,2.993,-1.4731,-0.2067,0.0144,0.9952,0.0964,0.2758,-0.2536,0.3091,0.4541,-0.8858,-0.1996,0.2903,0.7416,0.4055,dws
1772309650,2.9892,-1.4812,-0.1925,0.0136,0.996,0.0884,0.3752,0.491,0.2966,0.2947,-0.8644,0.0447,0.3888,1.487,0.385,dws
1772309650,2.9457,-1.4802,-0.2194,0.0176,0.9959,0.0888,0.1949,1.5843,0.1178,-0.3654,-0.6084,0.2746,0.2125,2.5802,0.2066,dws
1772309650,2.9098,-1.4666,-0.2587,0.0239,0.9946,0.1012,0.0813,1.36,-0.3126,-0.7077,0.7387,0.1987,0.1052,2.3546,-0.2114,dws
1772309650,2.9714,-1.4504,-0.2236,0.0203,0.9928,0.1183,-0.7555,0.1687,-0.3391,-1.2726,1.4512,-0.2929,-0.7352,1.1614,-0.2208,dws
1772309650,3.068,-1.4208,-0.129,0.011,0.9888,0.149,-0.3695,0.7908,-0.03,-1.4196,-0.9318,-0.3629,-0.3585,1.7796,0.119,dws
1772309650,3.0827,-1.4039,-0.0933,0.0098,0.9861,0.1658,0.4179,0.5228,-0.3575,-0.3294,-0.9194,-0.0656,0.4277,1.5089,-0.1917,dws
1772309650,3.056,-1.404,-0.1037,0.0142,0.9861,0.1654,0.2084,0.2941,-1.0051,0.4052,-0.7833,0.1905,0.2226,1.2802,-0.8397,dws
1772309650,3.0146,-1.4203,-0.1328,0.019,0.9887,0.1487,-0.1329,0.1821,-0.8701,1.2386,-0.4673,0.0374,-0.1139,1.1708,-0.7214,dws
1772309650,2.9895,-1.4482,-0.1526,0.0185,0.9925,0.1209,-0.3643,0.3475,-0.344,1.4758,-0.1618,-0.1397,-0.3458,1.34,-0.2231,dws
1772309650,2.9816,-1.4774,-0.1569,0.0149,0.9956,0.0921,-0.3377,0.3004,-0.0508,1.4379,-0.3119,-0.2285,-0.3228,1.2961,0.0413,dws
1772309651,2.9508,-1.5048,-0.1788,0.0125,0.9978,0.0647,-0.0639,0.1398,0.1143,1.2914,-0.6043,-0.0444,-0.0514,1.1376,0.1791,dws
1772309651,2.8126,-1.5269,-0.3017,0.0142,0.999,0.0416,-0.0786,0.003,0.249,1.0147,-0.8761,0.117,-0.0645,1.0021,0.2905,dws
1772309651,2.5118,-1.5413,-0.5872,0.0174,0.9996,0.0238,-0.1129,-0.0541,0.3162,0.7698,-0.617,0.1314,-0.0955,0.9455,0.34,dws
1772309651,2.0027,-1.5487,-1.0866,0.0201,0.9998,0.0093,-0.0439,-0.134,0.2236,0.708,-0.401,0.1425,-0.0238,0.8658,0.2329,dws
1772309651,1.3425,-1.5465,-1.7408,0.0236,0.9997,-0.0055,0.0623,-0.2302,0.1167,0.7639,-0.2185,0.2203,0.0859,0.7695,0.1112,dws
1772309651,0.9544,-1.535,-2.1278,0.0292,0.9994,-0.0207,0.0575,-0.3046,0.1562,0.7426,0.1002,0.3323,0.0866,0.6948,0.1355,dws
1772309651,0.8066,-1.5209,-2.2796,0.036,0.9988,-0.0345,-0.0635,-0.3341,0.1511,0.6633,0.2129,0.3262,-0.0276,0.6647,0.1166,dws
1772309651,0.7291,-1.5082,-2.3584,0.0417,0.998,-0.0467,-0.166,-0.3064,0.1126,0.5781,-0.1483,0.2683,-0.1243,0.6917,0.0659,dws
1772309651,0.6835,-1.4967,-2.397,0.0468,0.9973,-0.0574,-0.1409,-0.2393,0.1982,0.4566,-0.5236,0.295,-0.0941,0.758,0.1408,dws
1772309651,0.691,-1.4883,-2.3791,0.0525,0.9966,-0.0635,-0.1444,-0.2065,0.4396,0.0541,-0.4462,0.3555,-0.0918,0.7901,0.3761,dws
1772309651,0.7837,-1.4863,-2.2787,0.0595,0.9964,-0.0598,-0.1894,-0.3363,0.4185,-0.432,-0.3124,0.4127,-0.1298,0.6601,0.3588,dws
1772309651,0.9314,-1.4865,-2.1244,0.0675,0.9965,-0.0502,-0.1612,-0.3767,0.1631,-0.4886,-0.3215,0.4166,-0.0936,0.6198,0.1129,dws
1772309651,1.0668,-1.4834,-1.9815,0.0764,0.9962,-0.0421,-0.0515,-0.306,0.0792,-0.3967,-0.3667,0.5376,0.0249,0.6902,0.0371,dws
1772309651,1.1959,-1.4758,-1.8451,0.0883,0.9955,-0.0347,0.0155,-0.2211,0.2556,-0.42,-0.2428,0.6823,0.1038,0.7744,0.2209,dws
1772309651,1.3327,-1.4651,-1.7062,0.1025,0.9944,-0.0249,-0.1088,-0.3182,0.2237,-0.5941,0.0456,0.7316,-0.0064,0.6763,0.1988,dws
1772309651,1.4518,-1.4537,-1.5856,0.116,0.9932,-0.0139,-0.2866,-0.4872,-0.1129,-0.4412,-0.197,0.6342,-0.1706,0.5059,-0.1268,dws
1772309651,1.4868,-1.4421,-1.5424,0.1279,0.9917,-0.0108,-0.2935,-0.5117,-0.2002,-0.0194,-0.5252,0.5962,-0.1656,0.4801,-0.211,dws
1772309651,1.5058,-1.4309,-1.5161,0.1392,0.9902,-0.0091,-0.3137,-0.2067,0.3635,-0.3918,-0.1245,0.567,-0.1745,0.7835,0.3545,dws
1772309651,1.6036,-1.4194,-1.4158,0.1507,0.9886,0.0049,-0.3422,-0.1124,0.4503,-1.0423,-0.1338,0.598,-0.1915,0.8761,0.4552,dws
1772309651,1.7705,-1.4041,-1.2392,0.1626,0.9861,0.0329,-0.1456,-0.1785,0.8203,-2.0036,-0.6385,0.5794,0.017,0.8076,0.8532,dws
1772309651,2.0052,-1.3798,-0.9848,0.1722,0.9818,0.0799,-0.0553,0.2666,1.0105,-3.0383,-0.7679,0.2585,0.1169,1.2484,1.0904,dws
1772309651,2.2649,-1.3426,-0.7076,0.1739,0.9741,0.1447,-0.2063,1.0812,0.5619,-3.71,-0.5422,-0.2091,-0.0324,2.0553,0.7066,dws
1772309651,2.4705,-1.2983,-0.4756,0.1673,0.9631,0.2107,-0.4874,1.5284,-0.0593,-3.2441,-1.1804,-0.8681,-0.32,2.4915,0.1515,dws
1772309651,2.6214,-1.2627,-0.3083,0.1507,0.9529,0.2631,-0.0503,1.0292,-0.84,-2.5488,0.1433,-0.9823,0.1004,1.9821,-0.5769,dws
1772309651,2.7386,-1.2301,-0.1865,0.131,0.9425,0.3074,0.0817,0.835,-0.6907,-2.1106,0.0543,-1.0748,0.2128,1.7775,-0.3833,dws
1772309651,2.8404,-1.2039,-0.0862,0.1064,0.9334,0.3426,-0.0485,0.9882,-0.4243,-1.6099,0.6129,-1.3104,0.058,1.9216,-0.0817,dws
1772309651,2.9422,-1.1837,0.0095,0.0748,0.926,0.37,-0.0972,1.1251,-0.0249,-1.175,0.5005,-1.5905,-0.0224,2.0511,0.3451,dws
1772309651,3.0369,-1.1711,0.1045,0.0406,0.9212,0.387,0.0297,0.5678,-0.2169,-0.6776,0.2523,-1.8144,0.0703,1.489,0.1701,dws
1772309651,3.1209,-1.1633,0.1961,0.0082,0.9181,0.3962,0.2155,0.202,-0.3176,-0.3511,-0.2694,-1.7004,0.2237,1.1201,0.0786,dws
1772309651,-3.1,-1.1583,0.2723,-0.0167,0.9161,0.4005,0.2818,0.0362,-0.3371,-0.1347,-0.4609,-1.3223,0.2652,0.9523,0.0634,dws
1772309651,-3.0646,-1.1555,0.3254,-0.031,0.915,0.4022,0.3064,-0.1684,-0.3216,-0.0277,-0.932,-0.872,0.2754,0.7466,0.0807,dws
1772309651,-3.051,-1.1556,0.3625,-0.0365,0.915,0.4017,0.2392,-0.3188,-0.3528,0.19,-1.0321,-0.6579,0.2027,0.5962,0.0489,dws
1772309651,-3.0416,-1.1613,0.3928,-0.0398,0.9173,0.3962,0.3254,-0.3962,-0.3861,0.4902,-0.7972,-0.491,0.2856,0.5211,0.0101,dws
1772309651,-3.0346,-1.1723,0.4154,-0.0414,0.9216,0.3858,0.3606,-0.4507,-0.3909,0.6896,-0.6373,-0.2856,0.3191,0.471,-0.0051,dws
1772309651,-3.0324,-1.1868,0.4313,-0.0408,0.9272,0.3724,0.2865,-0.4775,-0.3924,0.8318,-0.6049,-0.1644,0.2457,0.4497,-0.02,dws
1772309651,-3.0336,-1.2047,0.443,-0.0386,0.9337,0.3559,0.2385,-0.5166,-0.3644,1.0113,-0.6331,-0.0578,0.2,0.4171,-0.0085,dws
1772309651,-3.0413,-1.2266,0.4497,-0.0338,0.9414,0.3357,0.1803,-0.5404,-0.3288,1.2022,-0.7907,0.0663,0.1465,0.401,0.0069,dws
1772309651,-3.0614,-1.2518,0.4475,-0.0251,0.9496,0.3126,0.1048,-0.5084,-0.2853,1.2945,-1.0431,0.2364,0.0797,0.4412,0.0273,dws
1772309651,-3.101,-1.2784,0.4322,-0.0117,0.9576,0.288,0.0216,-0.4323,-0.2605,1.3519,-1.502,0.3768,0.0099,0.5253,0.0275,dws
1772309651,3.1207,-1.3061,0.4052,0.0055,0.9652,0.2616,-0.0544,-0.331,-0.2439,1.4288,-2.0475,0.3674,-0.0489,0.6341,0.0176,dws
1772309651,3.0485,-1.3352,0.3742,0.0217,0.9724,0.2324,-0.0955,-0.2402,-0.1976,1.5401,-2.1122,0.2373,-0.0738,0.7322,0.0349,dws
1772309651,2.9759,-1.3671,0.3411,0.0334,0.9793,0.1995,-0.0885,-0.139,-0.093,1.7478,-1.9562,0.0631,-0.0551,0.8403,0.1065,dws
1772309651,2.9074,-1.4008,0.3077,0.0393,0.9856,0.1646,-0.093,0.0285,0.3296,1.5693,-1.4986,-0.1382,-0.0538,1.014,0.4942,dws
1772309651,2.8812,-1.4251,0.3027,0.0374,0.9894,0.1403,-0.2268,0.0101,0.8402,0.802,-0.6974,-0.3711,-0.1894,0.9995,0.9805,dws
1772309651,2.915,-1.4361,0.3459,0.0302,0.9909,0.1309,-0.2551,-0.1266,0.6381,0.1769,-0.2818,-0.4726,-0.2249,0.8643,0.769,dws
1772309651,2.9822,-1.4384,0.4208,0.0209,0.9913,0.1303,-0.1345,-0.2962,0.2231,-0.0799,-0.4928,-0.543,-0.1135,0.695,0.3533,dws
1772309651,3.0475,-1.4387,0.4996,0.0124,0.9913,0.1312,0.092,-0.4844,-0.0215,0.0068,-0.8084,-0.468,0.1044,0.5069,0.1096,dws
1772309651,3.0818,-1.4409,0.5554,0.0077,0.9916,0.1293,0.2563,-0.5427,0.016,0.1432,-1.297,-0.2794,0.2641,0.4489,0.1453,dws
1772309651,3.0847,-1.4454,0.586,0.0071,0.9921,0.1249,0.2191,-0.5351,0.136,0.3162,-1.3716,-0.1604,0.2262,0.4571,0.2609,dws
1772309651,3.0883,-1.4537,0.6142,0.0062,0.9931,0.1167,0.2219,-0.4531,0.0408,0.4531,-1.0803,-0.2374,0.2281,0.54,0.1575,dws
1772309652,3.0574,-1.4612,0.6076,0.0092,0.994,0.1089,0.4626,0.5451,-0.0159,0.2143,-1.3833,0.3471,0.4718,1.5391,0.093,dws
1772309652,2.9529,-1.4594,0.5231,0.0209,0.9938,0.1092,0.1577,1.8479,-0.2102,-0.1864,-0.2938,0.4661,0.1785,2.8417,-0.101,dws
1772309652,2.9295,-1.456,0.4983,0.0241,0.9934,0.1119,-0.3915,0.4124,-0.2508,0.0762,0.7283,-0.1947,-0.3674,1.4058,-0.1388,dws
1772309652,3.0141,-1.4519,0.5572,0.0151,0.9929,0.1177,-0.5757,1.1393,0.3619,-0.9962,0.9647,-0.427,-0.5607,2.1322,0.4796,dws
1772309652,3.0962,-1.4148,0.6397,0.007,0.9879,0.1552,-0.5569,1.7341,1.6597,-2.2333,-0.828,-0.2463,-0.5499,2.722,1.8149,dws
1772309652,3.0921,-1.3784,0.6595,0.0095,0.9816,0.191,0.5031,0.4986,-1.2339,-1.4105,-1.5316,0.0778,0.5126,1.4801,-1.0429,dws
1772309652,3.0538,-1.3649,0.6478,0.0179,0.9789,0.2036,0.1887,0.1597,-1.3641,0.1822,-1.1032,0.0509,0.2066,1.1386,-1.1605,dws
1772309652,3.0355,-1.3822,0.6496,0.0198,0.9823,0.1864,-0.1045,0.1779,-0.8734,1.3548,-0.7696,-0.1731,-0.0847,1.1602,-0.687,dws
1772309652,3.0244,-1.4151,0.6429,0.0181,0.9879,0.154,0.0316,0.2791,-0.687,1.8748,0.3078,-0.0693,0.0497,1.267,-0.5329,dws
1772309652,3.006,-1.454,0.618,0.0158,0.9932,0.1155,-0.1025,0.2503,-0.3145,1.9836,0.2014,-0.0509,-0.0867,1.2435,-0.1991,dws
1772309652,2.9559,-1.4919,0.5678,0.0145,0.9969,0.0774,-0.2777,0.036,-0.0376,1.8258,-0.2856,-0.0633,-0.2632,1.0329,0.0398,dws
1772309652,2.8439,-1.5249,0.4683,0.0135,0.9989,0.0439,-0.3498,-0.1741,0.1164,1.5155,-0.9774,-0.1099,-0.3364,0.8249,0.1603,dws
1772309652,2.5225,-1.5507,0.1663,0.0117,0.9998,0.0164,-0.193,-0.1643,0.2,1.2498,-0.8768,-0.1334,-0.1813,0.8355,0.2164,dws
1772309652,0.9296,-1.5591,-1.4133,0.0094,0.9999,-0.007,0.1066,-0.1497,0.2785,1.109,-0.4464,-0.0756,0.116,0.8502,0.2715,dws
1772309652,0.3649,-1.5421,-1.9732,0.0102,0.9996,-0.0268,0.3574,-0.216,0.3435,0.8323,-0.0843,0.1994,0.3677,0.7836,0.3167,dws
1772309652,0.4009,-1.5283,-1.9372,0.0166,0.9991,-0.0391,0.2689,-0.272,0.3774,0.4151,0.0798,0.4088,0.2855,0.7271,0.3383,dws
1772309652,0.5107,-1.5195,-1.8298,0.0251,0.9987,-0.0448,0.0442,-0.283,0.2974,0.2068,0.1015,0.4415,0.0693,0.7157,0.2526,dws
1772309652,0.6181,-1.5116,-1.7213,0.0343,0.9982,-0.0483,-0.0385,-0.2707,0.2293,0.1242,-0.1866,0.4943,-0.0042,0.7275,0.1811,dws
1772309652,0.7331,-1.5049,-1.6012,0.0441,0.9978,-0.0489,-0.1321,-0.3609,0.2075,-0.0884,-0.2646,0.4969,-0.088,0.6369,0.1585,dws
1772309652,0.8597,-1.5009,-1.4695,0.0529,0.9976,-0.0456,-0.254,-0.3829,0.2549,-0.2484,-0.2387,0.4305,-0.2011,0.6146,0.2093,dws
1772309652,0.9739,-1.4972,-1.3476,0.0608,0.9973,-0.0413,-0.2181,-0.2803,0.1426,-0.1721,-0.5043,0.4066,-0.1573,0.717,0.1013,dws
1772309652,1.0451,-1.4911,-1.2664,0.0689,0.9968,-0.04,-0.1606,-0.1841,0.0998,-0.0603,-0.4167,0.4568,-0.0917,0.8127,0.0599,dws
1772309652,1.1189,-1.4833,-1.1864,0.0786,0.9962,-0.0382,-0.1869,-0.1834,0.142,-0.2029,-0.2008,0.5424,-0.1083,0.8127,0.1038,dws
1772309652,1.2231,-1.4762,-1.078,0.0888,0.9955,-0.0322,-0.2829,-0.2233,0.2587,-0.4177,-0.2159,0.4974,-0.1941,0.7722,0.2265,dws
1772309652,1.3292,-1.4695,-0.9646,0.0982,0.9949,-0.0242,-0.3301,-0.3263,0.1313,-0.4052,-0.4939,0.4701,-0.2319,0.6685,0.1071,dws
1772309652,1.3964,-1.4613,-0.8859,0.1077,0.994,-0.019,-0.2647,-0.3683,-0.0218,-0.2409,-0.5413,0.5232,-0.157,0.6257,-0.0408,dws
1772309652,1.4489,-1.4506,-0.8239,0.119,0.9928,-0.0146,-0.1603,-0.1409,0.3059,-0.3419,-0.4618,0.6657,-0.0413,0.8519,0.2914,dws
1772309652,1.5091,-1.4359,-0.7487,0.1342,0.9909,-0.0083,-0.1297,-0.0757,0.1285,-0.4713,-0.9027,0.8784,0.0045,0.9153,0.1202,dws
1772309652,1.5694,-1.4178,-0.6708,0.1524,0.9883,-0.0002,-0.1672,-0.1075,0.2891,-0.6518,-0.7407,0.9634,-0.0148,0.8808,0.2889,dws
1772309652,1.6763,-1.3977,-0.5509,0.1712,0.9851,0.0181,-0.169,-0.1796,0.6614,-1.5525,-0.4639,0.9191,0.0022,0.8055,0.6795,dws
1772309652,1.8806,-1.3729,-0.3308,0.1873,0.9805,0.0599,-0.2281,0.3148,1.0663,-2.9445,-0.6997,0.605,-0.0409,1.2953,1.1263,dws
1772309652,2.1316,-1.3392,-0.0594,0.1944,0.9733,0.1221,-0.4744,1.2887,0.6122,-3.5439,-0.8186,-0.0631,-0.28,2.262,0.7343,dws
1772309652,2.3479,-1.3062,0.1856,0.1864,0.9652,0.1834,-0.6201,1.2857,-0.0146,-3.1233,-1.0475,-1.0833,-0.4336,2.2509,0.1688,dws
1772309652,2.5384,-1.2782,0.3854,0.1637,0.9575,0.2376,0.3019,0.8004,-0.816,-2.5861,0.7784,-1.1887,0.4656,1.7579,-0.5784,dws
1772309652,2.6845,-1.2493,0.524,0.1395,0.9488,0.2836,0.4351,0.5464,-0.7937,-2.1191,0.3543,-0.9795,0.5746,1.4952,-0.5101,dws
1772309652,2.7819,-1.2207,0.6257,0.1207,0.9393,0.321,-0.0359,0.6658,-0.2753,-1.7976,-0.0854,-1.003,0.0848,1.6052,0.0458,dws
1772309652,2.8683,-1.1964,0.7153,0.0987,0.9307,0.3521,-0.2609,0.9616,0.0268,-1.5353,0.4015,-1.3028,-0.1622,1.8923,0.379,dws
1772309652,2.9648,-1.1769,0.8085,0.0675,0.9234,0.3778,-0.2351,0.5934,-0.3383,-1.107,0.5088,-1.6641,-0.1676,1.5168,0.0395,dws
1772309652,3.0546,-1.1644,0.9021,0.0344,0.9185,0.3938,0.0646,0.2287,-0.4774,-0.6932,-0.1401,-1.7391,0.099,1.1472,-0.0836,dws
1772309652,3.1213,-1.1544,0.9803,0.0082,0.9145,0.4044,0.3969,0.1141,-0.3649,-0.4394,-0.3375,-1.3408,0.4051,1.0287,0.0395,dws
1772309652,-3.1189,-1.1499,1.0395,-0.0093,0.9127,0.4085,0.3075,-0.1002,-0.4447,-0.0264,-0.8466,-1.1049,0.2982,0.8126,-0.0363,dws
1772309652,-3.0953,-1.1511,1.0877,-0.0189,0.9132,0.407,0.2247,-0.2906,-0.4139,0.2024,-1.1504,-0.8705,0.2058,0.6226,-0.0069,dws
1772309652,-3.0822,-1.157,1.1256,-0.0239,0.9156,0.4014,0.3264,-0.447,-0.4227,0.476,-0.9854,-0.6221,0.3026,0.4686,-0.0214,dws
1772309652,-3.0752,-1.1688,1.1515,-0.026,0.9203,0.3904,0.4474,-0.597,-0.4345,0.7845,-0.6448,-0.3166,0.4214,0.3233,-0.0442,dws
1772309652,-3.0756,-1.1861,1.1626,-0.0247,0.9269,0.3744,0.4096,-0.6111,-0.4256,0.9496,-0.4677,-0.0073,0.3849,0.3158,-0.0512,dws
1772309652,-3.0834,-1.2062,1.1632,-0.0207,0.9343,0.3559,0.2057,-0.6136,-0.3898,1.076,-0.401,0.0909,0.185,0.3207,-0.0339,dws
1772309652,-3.0941,-1.2297,1.1608,-0.0159,0.9424,0.3342,0.1313,-0.5839,-0.341,1.2926,-0.4681,0.133,0.1154,0.3584,-0.0068,dws
1772309652,-3.1153,-1.2579,1.1503,-0.0081,0.9515,0.3077,0.1497,-0.5134,-0.2791,1.5273,-0.7008,0.3383,0.1416,0.4381,0.0286,dws
1772309652,3.1191,-1.2899,1.1191,0.0062,0.9608,0.2771,0.0883,-0.5023,-0.244,1.684,-1.2646,0.5643,0.0946,0.4585,0.0331,dws
1772309652,3.0374,-1.3235,1.0681,0.0255,0.9696,0.2435,-0.0734,-0.4193,-0.2179,1.7463,-1.9947,0.5194,-0.0479,0.5503,0.0256,dws
1772309652,2.9349,-1.3576,1.0094,0.0434,0.9774,0.2071,-0.1701,-0.392,-0.1694,1.885,-2.5263,0.2795,-0.1267,0.5853,0.0376,dws
1772309653,2.8103,-1.3948,0.9372,0.057,0.9845,0.1656,-0.1252,-0.1975,0.0129,2.0515,-2.8422,0.06,-0.0683,0.787,0.1785,dws
1772309653,2.6782,-1.431,0.8568,0.0623,0.9902,0.1247,-0.196,0.1004,0.5511,1.6644,-2.1093,-0.33,-0.1337,1.0906,0.6757,dws
1772309653,2.633,-1.4596,0.8304,0.054,0.9938,0.0969,-0.3427,0.2958,0.9182,1.0946,0.2192,-0.6686,-0.2887,1.2896,1.0152,dws
1772309653,2.7273,-1.4812,0.9066,0.036,0.996,0.0819,-0.2451,0.1836,0.679,0.4285,1.2527,-0.9919,-0.2091,1.1796,0.7609,dws
1772309653,2.9721,-1.4881,1.137,0.0139,0.9966,0.0814,0.0957,-0.0712,0.5336,-0.3188,0.1757,-1.0297,0.1096,0.9254,0.6151,dws
1772309653,-3.1194,-1.4783,1.3334,-0.0021,0.9957,0.0923,0.4788,-0.4389,0.215,-0.7099,-0.5236,-0.5735,0.4768,0.5568,0.3074,dws
1772309653,-3.0934,-1.4637,1.3802,-0.0051,0.9943,0.1068,0.5303,-0.2338,-0.4576,-0.6301,-1.8651,0.096,0.5251,0.7605,-0.3508,dws
1772309653,3.0504,-1.4569,1.3074,0.0103,0.9935,0.1132,0.5138,0.6628,-0.4317,0.0215,-4.802,0.6683,0.5242,1.6563,-0.3186,dws
1772309653,2.8436,-1.4545,1.1639,0.0341,0.9932,0.1109,0.3878,1.2729,-0.0054,-0.2708,-0.7794,0.7273,0.4219,2.2661,0.1055,dws
1772309653,2.9021,-1.4359,1.1955,0.0319,0.9909,0.1307,-1.194,0.1105,0.5733,-1.5727,2.0033,-0.3069,-1.1621,1.1014,0.7039,dws
1772309653,3.0197,-1.4118,1.3059,0.0193,0.9874,0.1572,-0.7252,1.0916,-0.0926,-1.0099,-0.5181,-0.8026,-0.7059,2.079,0.0646,dws
1772309653,3.1153,-1.3975,1.4035,0.0045,0.985,0.1724,0.2733,0.9923,-0.0908,-0.617,0.4445,-0.562,0.2778,1.9773,0.0816,dws
1772309653,-3.1313,-1.3853,1.4387,-0.0019,0.9828,0.1844,0.2867,0.711,-0.4701,-0.515,-0.251,-0.0479,0.2848,1.6938,-0.2857,dws
1772309653,-3.1366,-1.3786,1.4405,-0.0009,0.9816,0.191,-0.032,0.332,-0.3345,-0.1789,-0.4111,-0.0027,-0.0329,1.3136,-0.1435,dws
1772309653,3.1347,-1.3799,1.4386,0.0013,0.9818,0.1897,0.0511,0.2206,-0.4286,0.3143,-0.5821,0.0665,0.0524,1.2024,-0.2388,dws
1772309653,3.1083,-1.3895,1.4226,0.006,0.9836,0.1802,0.1715,-0.0336,-0.4022,0.6246,-0.4386,0.2056,0.1775,0.9501,-0.222,dws
1772309653,3.0667,-1.4033,1.3876,0.0125,0.986,0.1662,0.1778,-0.166,-0.264,0.7958,-0.279,0.3261,0.1902,0.8201,-0.0978,dws
1772309653,3.0084,-1.4203,1.3299,0.0199,0.9887,0.1486,0.0713,-0.1785,-0.1605,0.9834,0.1672,0.3894,0.0912,0.8102,-0.0119,dws
1772309653,2.934,-1.4386,1.251,0.0272,0.9913,0.129,-0.1119,-0.2172,-0.0512,0.9749,0.1153,0.4023,-0.0847,0.7741,0.0778,dws
1772309653,2.8417,-1.4539,1.1572,0.0344,0.9932,0.1114,-0.2554,-0.2967,0.0366,0.785,-0.0293,0.3525,-0.221,0.6965,0.148,dws
1772309653,2.7439,-1.4641,1.0621,0.0413,0.9943,0.0982,-0.287,-0.2451,0.1028,0.5602,-0.3284,0.3071,-0.2457,0.7492,0.201,dws
1772309653,2.6415,-1.4711,0.9661,0.0477,0.995,0.0874,-0.1481,-0.1101,0.275,0.512,-0.2624,0.2987,-0.1004,0.8849,0.3624,dws
1772309653,2.5376,-1.475,0.8637,0.0543,0.9954,0.0787,-0.0789,-0.1545,0.2706,0.317,0.0308,0.3644,-0.0246,0.8409,0.3494,dws
1772309653,2.4487,-1.4733,0.7743,0.0622,0.9953,0.0749,-0.0801,-0.3528,0.1115,0.0946,-0.0999,0.4052,-0.018,0.6424,0.1864,dws
1772309653,2.3742,-1.4691,0.7043,0.0705,0.9948,0.0731,-0.0988,-0.4451,0.065,0.1185,-0.3214,0.3944,-0.0284,0.5497,0.1381,dws
1772309653,2.2878,-1.4666,0.6229,0.0784,0.9946,0.0683,-0.122,-0.3769,0.0289,0.2944,-0.2115,0.3763,-0.0436,0.6177,0.0972,dws
1772309653,2.1993,-1.4638,0.5369,0.0864,0.9943,0.0628,-0.1433,-0.2741,-0.0215,0.2039,-0.0424,0.4093,-0.0569,0.7202,0.0413,dws
1772309653,2.1558,-1.4578,0.4896,0.094,0.9936,0.0623,-0.2411,-0.2242,0.1972,-0.1722,0.368,0.3674,-0.1471,0.7694,0.2595,dws
1772309653,2.1886,-1.4473,0.5169,0.1004,0.9924,0.0714,-0.3388,-0.2132,0.4873,-0.6268,0.0845,0.3395,-0.2384,0.7792,0.5587,dws
1772309653,2.2214,-1.4343,0.5539,0.1083,0.9907,0.0824,-0.207,-0.1245,0.1305,-0.5032,-0.4316,0.4493,-0.0987,0.8662,0.2129,dws
1772309653,2.2236,-1.4193,0.5679,0.1199,0.9885,0.0917,-0.1482,-0.2227,0.076,-0.6425,-0.6625,0.6301,-0.0283,0.7658,0.1677,dws
1772309653,2.2356,-1.3989,0.5931,0.1347,0.9853,0.1055,-0.1724,-0.2577,0.2807,-0.9311,-0.7378,0.7175,-0.0377,0.7276,0.3862,dws
1772309653,2.2698,-1.3724,0.6456,0.1509,0.9804,0.1268,-0.1096,-0.2412,0.5254,-1.5956,-0.8725,0.7348,0.0413,0.7391,0.6522,dws
1772309653,2.346,-1.3359,0.7392,0.1662,0.9725,0.1629,-0.1106,0.1616,0.7023,-2.376,-0.677,0.5628,0.0557,1.1341,0.8652,dws
1772309653,2.4498,-1.2923,0.863,0.1754,0.9615,0.2117,-0.2981,0.9338,0.3804,-2.9068,-1.0993,0.0511,-0.1227,1.8952,0.5921,dws
1772309653,2.5495,-1.2499,0.9965,0.176,0.9489,0.2618,-0.5025,1.3264,0.006,-2.7553,-1.2063,-0.6846,-0.3265,2.2753,0.2677,dws
1772309653,2.6613,-1.2158,1.1218,0.1606,0.9377,0.3082,-0.0017,0.9202,-0.4094,-2.2988,0.3324,-0.9984,0.1588,1.8578,-0.1012,dws
1772309653,2.7549,-1.1845,1.2182,0.1421,0.9263,0.3489,0.358,0.6906,-0.3856,-1.9906,-0.1134,-0.8157,0.5,1.617,-0.0367,dws
1772309653,2.8174,-1.1563,1.2912,0.1283,0.9153,0.3817,-0.0163,0.6417,-0.3454,-1.6261,-0.1943,-0.9404,0.112,1.557,0.0363,dws
1772309653,2.8789,-1.1374,1.3592,0.1091,0.9076,0.4055,-0.1972,0.5132,-0.4915,-1.009,0.1155,-1.1326,-0.0882,1.4208,-0.086,dws
1772309653,2.9354,-1.126,1.4181,0.0881,0.9027,0.4212,-0.0046,0.3769,-0.2246,-0.7615,0.2252,-1.0539,0.0835,1.2796,0.1966,dws
1772309653,2.9891,-1.1155,1.4709,0.0668,0.8981,0.4346,0.024,0.2996,-0.1562,-0.6872,0.3528,-0.994,0.0908,1.1978,0.2784,dws
1772309653,3.0356,-1.107,1.517,0.0473,0.8944,0.4448,0.0709,0.1353,-0.2365,-0.3947,0.1313,-0.928,0.1182,1.0297,0.2084,dws
1772309653,3.0696,-1.104,1.5576,0.0324,0.893,0.4489,0.1225,0.0202,-0.2918,-0.0702,-0.3921,-0.8739,0.1549,0.9132,0.1571,dws
1772309653,3.094,-1.1071,1.5964,0.0213,0.8944,0.4468,0.0802,-0.1038,-0.3216,0.2568,-0.6157,-0.8917,0.1015,0.7906,0.1252,dws
1772309653,3.1146,-1.1151,1.6351,0.0119,0.8979,0.44,0.1426,-0.1993,-0.2563,0.4596,-0.7614,-0.8373,0.1545,0.6986,0.1837,dws
1772309653,3.1296,-1.1259,1.6692,0.0052,0.9027,0.4303,0.2487,-0.2889,-0.2185,0.6028,-0.8203,-0.681,0.2539,0.6137,0.2118,dws
1772309653,3.1381,-1.1395,1.6971,0.0014,0.9084,0.4181,0.2591,-0.317,-0.2859,0.7279,-0.8315,-0.4949,0.2606,0.5914,0.1321,dws
1772309653,3.1388,-1.1539,1.714,0.0011,0.9144,0.4049,0.2822,-0.371,-0.3029,0.6977,-0.6602,-0.1784,0.2833,0.5434,0.102,dws
1772309653,3.1301,-1.1679,1.7178,0.0045,0.9199,0.3921,0.2365,-0.3946,-0.3015,0.7338,-0.592,-0.0035,0.241,0.5253,0.0906,dws
1772309654,3.1147,-1.1837,1.7152,0.0101,0.926,0.3774,0.1492,-0.3518,-0.3083,0.8575,-0.7311,0.0642,0.1594,0.5742,0.0691,dws
1772309654,3.0917,-1.2018,1.7088,0.018,0.9327,0.3602,0.0907,-0.3446,-0.2887,0.966,-0.9995,0.1001,0.1087,0.588,0.0715,dws
1772309654,3.0598,-1.2222,1.6991,0.0279,0.9399,0.3404,0.0389,-0.3405,-0.2673,1.115,-1.2913,0.0965,0.0668,0.5994,0.0731,dws
1772309654,3.019,-1.2457,1.6861,0.0391,0.9476,0.317,0.0047,-0.3118,-0.2445,1.279,-1.6003,0.0899,0.0438,0.6358,0.0724,dws
1772309654,2.968,-1.2728,1.6695,0.0507,0.9559,0.2892,-0.0124,-0.2778,-0.2091,1.4774,-1.9254,0.014,0.0384,0.6781,0.0801,dws
1772309654,2.908,-1.3026,1.6485,0.0613,0.9643,0.2578,-0.0579,-0.2581,-0.1202,1.5841,-2.0338,-0.0325,0.0034,0.7061,0.1376,dws
1772309654,2.8353,-1.3342,1.6146,0.0707,0.9721,0.2235,-0.06,-0.1797,-0.0201,1.7049,-2.0159,-0.0125,0.0106,0.7924,0.2034,dws
1772309654,2.7523,-1.3661,1.5696,0.0772,0.9791,0.1881,-0.104,0.0055,0.2482,1.56,-1.7989,-0.1585,-0.0268,0.9846,0.4363,dws
1772309654,2.6899,-1.3919,1.5348,0.0777,0.984,0.1601,-0.1813,0.0609,0.6151,1.0918,-1.0374,-0.3045,-0.1036,1.0449,0.7752,dws
1772309654,2.6682,-1.412,1.5258,0.0721,0.9874,0.1407,-0.1869,-0.0029,0.4465,0.816,-0.2528,-0.4689,-0.1148,0.9845,0.5873,dws
1772309654,2.6936,-1.4303,1.5508,0.0606,0.9902,0.1262,-0.1006,-0.0413,0.2593,0.6828,0.2377,-0.6619,-0.04,0.9489,0.3855,dws
1772309654,2.7545,-1.4467,1.6085,0.0467,0.9923,0.1146,-0.0082,-0.1298,0.2722,0.4902,0.0098,-0.6781,0.0385,0.8625,0.3869,dws
1772309654,2.8241,-1.4576,1.685,0.0353,0.9936,0.1073,0.1494,-0.1881,0.3762,0.2233,-0.6631,-0.5335,0.1846,0.8055,0.4835,dws
1772309654,2.8758,-1.4629,1.7537,0.0283,0.9942,0.1039,0.2422,-0.279,0.369,0.0629,-0.8705,-0.3658,0.2705,0.7152,0.473,dws
1772309654,2.9247,-1.4617,1.8151,0.0234,0.9941,0.1063,0.1696,-0.2636,0.1391,-0.281,-0.3763,-0.2282,0.193,0.7305,0.2453,dws
1772309654,2.9177,-1.4569,1.8243,0.0252,0.9935,0.1108,0.2805,0.4239,-0.3428,-0.2404,-1.4036,0.3377,0.3057,1.4174,-0.232,dws
1772309654,2.7908,-1.4469,1.7362,0.0425,0.9923,0.116,0.3241,0.9807,-0.2203,-0.4552,-2.3293,0.8032,0.3665,1.973,-0.1043,dws
1772309654,2.6838,-1.4364,1.6656,0.0592,0.991,0.1202,-0.2687,0.1681,-0.3166,-0.1599,-1.0972,0.3078,-0.2094,1.1591,-0.1964,dws
1772309654,2.7159,-1.4285,1.6998,0.0586,0.9899,0.1292,-0.7163,0.4032,0.0175,-0.8157,0.3339,-0.3578,-0.6578,1.3931,0.1467,dws
1772309654,2.8168,-1.4199,1.8072,0.048,0.9886,0.1425,-0.4595,0.565,0.0907,-0.4153,-0.3649,-0.7193,-0.4116,1.5537,0.2332,dws
1772309654,2.902,-1.419,1.8964,0.0359,0.9885,0.1469,0.1843,0.7306,-0.3218,-0.1372,-0.1125,-0.519,0.2202,1.7191,-0.1748,dws
1772309654,2.9461,-1.4191,1.9454,0.0293,0.9885,0.1482,0.214,0.5196,-0.3224,0.0407,-0.1897,-0.2077,0.2434,1.5081,-0.1742,dws
1772309654,2.965,-1.4249,1.9678,0.0255,0.9894,0.1431,-0.2208,0.2834,-0.3846,0.4964,-0.2382,-0.238,-0.1953,1.2728,-0.2415,dws
1772309654,2.9727,-1.4392,1.9829,0.0221,0.9914,0.1294,-0.0687,0.1022,-0.3733,0.8058,-0.462,-0.1405,-0.0467,1.0936,-0.2439,dws
1772309654,2.9539,-1.4555,1.9728,0.0215,0.9934,0.1131,0.1092,-0.0318,-0.1138,0.8085,-0.3989,-0.0116,0.1307,0.9616,-0.0007,dws
1772309654,2.9154,-1.4709,1.9406,0.0224,0.995,0.0972,0.0904,-0.1318,0.0629,0.7447,-0.2702,0.0633,0.1128,0.8632,0.16,dws
1772309654,2.8562,-1.4824,1.8876,0.0249,0.9961,0.0847,-0.0237,-0.2028,0.2021,0.5036,-0.4075,0.1464,0.0011,0.7933,0.2868,dws
1772309654,2.7689,-1.4899,1.8098,0.0294,0.9967,0.0753,-0.1076,-0.2024,0.1544,0.4471,-0.5284,0.2419,-0.0782,0.7943,0.2296,dws
1772309654,2.6481,-1.4958,1.6967,0.0355,0.9972,0.066,-0.1005,-0.2278,0.1356,0.4393,-0.26,0.3267,-0.065,0.7694,0.2016,dws
1772309654,2.5106,-1.4978,1.5625,0.043,0.9973,0.0589,-0.0828,-0.3161,0.101,0.2448,-0.1667,0.4008,-0.0398,0.6812,0.1599,dws
1772309654,2.3795,-1.4955,1.4377,0.0519,0.9972,0.0544,-0.0839,-0.3172,0.0408,0.2275,-0.5429,0.4433,-0.032,0.6799,0.0952,dws
1772309654,2.2425,-1.4923,1.3122,0.0614,0.9969,0.0488,-0.0852,-0.1654,0.3376,0.2225,-0.4816,0.4683,-0.0238,0.8315,0.3865,dws
1772309654,2.1487,-1.4846,1.2214,0.0721,0.9963,0.047,-0.0918,-0.1204,0.357,-0.0879,0.0863,0.6095,-0.0197,0.8758,0.404,dws
1772309654,2.1169,-1.4709,1.1869,0.0852,0.995,0.0518,-0.1086,-0.2876,0.1012,-0.3367,0.1498,0.7135,-0.0234,0.7075,0.153,dws
1772309654,2.1189,-1.4548,1.1864,0.0988,0.9933,0.0603,-0.1842,-0.4257,0.1257,-0.5357,0.0424,0.6458,-0.0854,0.5676,0.186,dws
1772309654,2.1627,-1.4367,1.2326,0.1109,0.991,0.0746,-0.2377,-0.3225,0.4955,-0.8908,-0.2755,0.5828,-0.1268,0.6686,0.57,dws
1772309654,2.2101,-1.4168,1.2889,0.1231,0.9882,0.0915,-0.2004,-0.2058,0.217,-0.8674,-0.5009,0.6014,-0.0773,0.7824,0.3085,dws
1772309654,2.231,-1.3966,1.3224,0.1369,0.9849,0.1063,-0.1866,-0.3218,-0.0608,-0.8649,-0.6941,0.683,-0.0496,0.663,0.0455,dws
1772309654,2.2519,-1.3738,1.3569,0.152,0.9807,0.1232,-0.1979,-0.4533,0.1151,-1.1386,-0.5869,0.6779,-0.0459,0.5274,0.2383,dws
1772309654,2.3204,-1.3446,1.4373,0.1641,0.9745,0.1528,-0.2597,-0.1998,0.6524,-2.1414,-0.4876,0.3832,-0.0956,0.7747,0.8052,dws
1772309654,2.442,-1.3062,1.5735,0.1684,0.9652,0.2001,-0.2544,0.7587,0.6808,-2.7882,-0.5499,-0.1454,-0.086,1.7239,0.8809,dws
1772309654,2.5613,-1.2672,1.7158,0.1639,0.9543,0.25,-0.4661,1.5151,0.0966,-2.6722,-1.2362,-0.7226,-0.3022,2.4693,0.3466,dws
1772309654,2.67,-1.2333,1.8454,0.1505,0.9436,0.295,-0.0894,0.8492,-0.399,-2.2934,0.1823,-1.0333,0.0611,1.7928,-0.104,dws
1772309654,2.7742,-1.2046,1.9454,0.1286,0.9337,0.3342,0.3245,0.631,-0.7045,-1.7863,0.4901,-0.9323,0.4531,1.5647,-0.3703,dws
1772309654,2.8469,-1.1796,2.021,0.1108,0.9244,0.3649,0.1258,0.5728,-0.2729,-1.5117,-0.0836,-0.9575,0.2365,1.4973,0.092,dws
1772309654,2.9155,-1.1599,2.0941,0.0896,0.9168,0.3893,-0.1848,0.7261,-0.1838,-1.1221,0.249,-1.276,-0.0953,1.6429,0.2055,dws
1772309654,2.989,-1.1468,2.1653,0.0625,0.9114,0.4067,0.062,0.6801,-0.0947,-0.757,0.6116,-1.2707,0.1245,1.5915,0.312,dws
1772309654,3.057,-1.1375,2.2264,0.0355,0.9076,0.4183,0.2916,0.3039,-0.1726,-0.4517,0.5302,-1.1216,0.3271,1.2115,0.2457,dws
1772309654,3.1052,-1.1315,2.2725,0.0155,0.905,0.425,0.2087,0.1237,-0.1708,-0.2771,0.1671,-0.7967,0.2241,1.0287,0.2543,dws
1772309654,3.1345,-1.1281,2.3041,0.003,0.9036,0.4284,0.1501,-0.0086,-0.2461,-0.0766,-0.1388,-0.5722,0.1532,0.895,0.1822,dws
1772309655,-3.1333,-1.1294,2.3291,-0.0036,0.9042,0.4272,0.0384,-0.0917,-0.3332,0.2079,-0.5345,-0.5272,0.0349,0.8124,0.094,dws
1772309655,-3.1237,-1.1354,2.353,-0.0075,0.9067,0.4217,0.1334,-0.2179,-0.3347,0.3953,-0.6815,-0.4693,0.1259,0.6888,0.087,dws
1772309655,-3.1206,-1.1446,2.3738,-0.0087,0.9106,0.4133,0.3093,-0.3583,-0.3432,0.5474,-0.8873,-0.3803,0.3007,0.5522,0.0701,dws
1772309655,-3.1236,-1.1571,2.3905,-0.0072,0.9156,0.4019,0.317,-0.4348,-0.3728,0.7242,-0.9489,-0.2686,0.3098,0.4808,0.0292,dws
1772309655,-3.1317,-1.1733,2.4016,-0.0038,0.922,0.3871,0.2701,-0.4637,-0.3578,0.909,-0.8378,-0.1377,0.2662,0.4583,0.0293,dws
1772309655,3.1411,-1.1929,2.4056,0.0002,0.9294,0.369,0.2004,-0.4522,-0.3167,1.0469,-0.6,-0.0097,0.2006,0.4772,0.0523,dws
1772309655,3.1266,-1.2142,2.4034,0.0052,0.9371,0.349,0.1015,-0.4449,-0.2969,1.1055,-0.6944,0.0733,0.1067,0.4922,0.0521,dws
1772309655,3.1028,-1.2375,2.3955,0.0127,0.945,0.3269,0.0335,-0.4492,-0.3412,1.2486,-1.0154,0.1386,0.0462,0.4958,-0.0143,dws
1772309655,3.0619,-1.2643,2.3799,0.024,0.9534,0.3007,0.0246,-0.4115,-0.3446,1.4922,-1.6378,0.1986,0.0486,0.5419,-0.0439,dws
1772309655,2.9964,-1.2958,2.352,0.0393,0.9624,0.2687,-0.0104,-0.3939,-0.2741,1.7351,-2.2119,0.2384,0.0289,0.5685,-0.0055,dws
1772309655,2.9083,-1.3309,2.3097,0.0549,0.9714,0.2312,-0.0696,-0.3432,-0.1638,1.9355,-2.5135,0.146,-0.0147,0.6281,0.0674,dws
1772309655,2.7966,-1.3704,2.2481,0.0673,0.98,0.1873,-0.0952,-0.2193,-0.063,2.3017,-2.651,0.0088,-0.0279,0.7607,0.1243,dws
1772309655,2.6439,-1.4165,2.1441,0.0734,0.9881,0.1351,-0.1348,0.033,0.2214,2.5218,-2.2298,-0.2564,-0.0614,1.0211,0.3565,dws
1772309655,2.5262,-1.4524,2.0532,0.0682,0.993,0.0965,-0.3065,0.3594,1.2101,0.9602,-0.5003,-0.5825,-0.2383,1.3524,1.3066,dws
1772309655,2.6179,-1.4643,2.1462,0.0532,0.9943,0.0921,-0.322,0.1419,1.1523,-0.3454,0.301,-0.9022,-0.2689,1.1362,1.2444,dws
1772309655,2.8237,-1.4614,2.3425,0.0341,0.994,0.1037,0.0964,-0.1851,0.4042,-0.645,0.5917,-0.8473,0.1305,0.8089,0.508,dws
1772309655,2.971,-1.4522,2.4883,0.0201,0.993,0.1166,0.3879,-0.5444,0.0769,-0.6275,-0.3788,-0.5163,0.408,0.4486,0.1935,dws
1772309655,3.0198,-1.446,2.5544,0.0151,0.9922,0.1236,0.3989,-0.6505,-0.3806,0.0008,-1.484,-0.2363,0.414,0.3417,-0.2571,dws
1772309655,2.9662,-1.4539,2.5469,0.0203,0.9932,0.1148,0.4788,0.1724,-0.4227,0.5975,-3.0379,0.3113,0.4991,1.1656,-0.3078,dws
1772309655,2.799,-1.4561,2.4338,0.0384,0.9934,0.1078,0.3612,1.375,0.0291,-0.2108,-1.6041,0.8588,0.3996,2.3685,0.1369,dws
1772309655,2.7534,-1.4421,2.3894,0.0486,0.9917,0.1188,-0.3181,1.1043,0.0479,-0.6289,1.435,-0.0311,-0.2696,2.0961,0.1667,dws
1772309655,2.8679,-1.4261,2.4776,0.039,0.9896,0.1388,-0.792,0.4267,0.2307,-1.4225,0.2963,-0.5326,-0.753,1.4163,0.3695,dws
1772309655,2.9596,-1.4026,2.5793,0.0303,0.9859,0.1646,-0.2259,0.6252,-0.21,-0.9631,-0.4982,-0.4456,-0.1956,1.6111,-0.0453,dws
1772309655,2.9963,-1.3961,2.6262,0.0252,0.9848,0.172,0.1108,0.5872,-0.8436,0.0967,-0.5894,-0.238,0.1359,1.572,-0.6716,dws
1772309655,2.9925,-1.4028,2.6384,0.0248,0.9859,0.1654,0.081,0.5299,-0.5518,0.5028,-0.8422,-0.0879,0.1058,1.5158,-0.3864,dws
1772309655,2.9806,-1.4161,2.6392,0.0247,0.9881,0.1521,-0.0504,0.4815,-0.3634,0.7832,-0.4814,-0.1373,-0.0257,1.4696,-0.2113,dws
1772309655,2.974,-1.4336,2.6418,0.0228,0.9906,0.1348,-0.0738,0.3434,-0.2664,0.8953,-0.4543,-0.1577,-0.051,1.334,-0.1316,dws
1772309655,2.9598,-1.4512,2.6361,0.0216,0.9929,0.1173,0.0825,0.1112,-0.1432,0.8886,-0.4154,-0.0664,0.104,1.104,-0.0258,dws
1772309655,2.9179,-1.4693,2.6031,0.0225,0.9949,0.0988,0.1231,-0.0802,-0.0709,0.933,-0.5013,0.0692,0.1455,0.9147,0.0279,dws
1772309655,2.8297,-1.486,2.5248,0.026,0.9964,0.0806,0.0195,-0.1115,0.0621,0.8721,-0.5196,0.1832,0.0455,0.8849,0.1427,dws
1772309655,2.6996,-1.4993,2.4033,0.0306,0.9974,0.0646,-0.1205,-0.1265,0.1438,0.7059,-0.3256,0.1953,-0.09,0.871,0.2084,dws
1772309655,2.5634,-1.5078,2.2702,0.0344,0.998,0.0528,-0.1492,-0.2013,0.1822,0.4717,-0.0739,0.1858,-0.1148,0.7967,0.235,dws
1772309655,2.4323,-1.5115,2.1418,0.0386,0.9982,0.045,-0.0654,-0.2886,0.124,0.3271,-0.3042,0.2449,-0.0268,0.7096,0.169,dws
1772309655,2.2731,-1.5123,1.993,0.0446,0.9983,0.0378,0.0297,-0.3191,0.1389,0.3518,-0.6627,0.3263,0.0744,0.6792,0.1767,dws
1772309655,2.1086,-1.5104,1.8384,0.0519,0.9982,0.0309,-0.0283,-0.336,0.2272,0.2545,-0.3127,0.3664,0.0235,0.6621,0.2581,dws
1772309655,2.0061,-1.5054,1.7392,0.0592,0.9979,0.0275,-0.1223,-0.4157,0.1607,0.071,-0.1297,0.3554,-0.063,0.5822,0.1883,dws
1772309655,1.9464,-1.4997,1.6846,0.0661,0.9975,0.0261,-0.119,-0.464,0.0175,0.0947,-0.4333,0.3325,-0.0529,0.5335,0.0435,dws
1772309655,1.8607,-1.494,1.6084,0.0735,0.9971,0.0219,-0.0621,-0.3613,0.0817,0.2264,-0.3461,0.4057,0.0114,0.6358,0.1036,dws
1772309655,1.7965,-1.486,1.5439,0.0825,0.9964,0.0189,-0.1339,-0.2055,0.1835,0.0228,0.2839,0.5063,-0.0514,0.7909,0.2025,dws
1772309655,1.8081,-1.4749,1.5491,0.0931,0.9954,0.0225,-0.2209,-0.2015,0.2149,-0.3283,0.255,0.5631,-0.1278,0.7939,0.2375,dws
1772309655,1.8731,-1.4611,1.6143,0.1045,0.994,0.0326,-0.1779,-0.3012,0.3708,-0.6818,-0.2448,0.5978,-0.0734,0.6928,0.4034,dws
1772309655,1.9395,-1.445,1.6895,0.117,0.9921,0.0452,-0.1075,-0.2868,0.1477,-0.5775,-0.5533,0.6249,0.0095,0.7053,0.1929,dws
1772309655,1.9447,-1.4304,1.7073,0.1303,0.9902,0.0511,-0.1374,-0.2848,-0.1257,-0.2194,-0.6691,0.6893,-0.0071,0.7054,-0.0746,dws
1772309655,1.9297,-1.4149,1.7029,0.1454,0.9879,0.0545,-0.1916,-0.2959,0.0965,-0.3582,-0.321,0.7627,-0.0462,0.692,0.1511,dws
1772309655,1.9733,-1.3959,1.7504,0.1601,0.9847,0.0682,-0.3792,-0.1762,0.55,-1.223,-0.1027,0.7094,-0.219,0.8086,0.6181,dws
1772309655,2.1163,-1.3664,1.9032,0.1735,0.9792,0.1053,-0.3425,-0.0003,1.1233,-2.7492,-0.6362,0.5706,-0.169,0.9789,1.2287,dws
1772309655,2.3143,-1.321,2.1172,0.182,0.969,0.1673,-0.2472,0.7912,1.0906,-3.6214,-0.2844,0.1414,-0.0653,1.7601,1.2579,dws
1772309655,2.483,-1.2703,2.3027,0.1812,0.9552,0.2341,-0.3182,1.4043,0.1868,-3.4549,-0.818,-0.4946,-0.137,2.3595,0.4209,dws
1772309655,2.6139,-1.2265,2.4534,0.1699,0.9413,0.2916,-0.1114,1.1259,-0.6693,-2.9231,0.0091,-0.9096,0.0585,2.0672,-0.3777,dws
1772309655,2.7307,-1.1891,2.5675,0.1488,0.928,0.3415,0.1695,0.7049,-0.7989,-2.1883,0.5734,-0.9512,0.3183,1.6329,-0.4574,dws
1772309655,2.8077,-1.1618,2.65,0.1303,0.9175,0.3757,-0.068,0.5288,-0.5344,-1.597,-0.1999,-1.0755,0.0623,1.4463,-0.1587,dws
1772309656,2.8816,-1.143,2.7298,0.1066,0.9099,0.4009,-0.224,0.733,-0.2205,-1.216,0.2802,-1.4285,-0.1174,1.6429,0.1804,dws
1772309656,2.9617,-1.129,2.8082,0.0765,0.904,0.4207,-0.0467,0.6752,-0.1414,-0.844,0.5363,-1.4784,0.0298,1.5792,0.2793,dws
1772309656,3.0361,-1.1207,2.8829,0.0458,0.9004,0.4327,0.0296,0.3244,-0.3569,-0.4804,0.1139,-1.5867,0.0754,1.2248,0.0757,dws
1772309656,3.0954,-1.1164,2.9534,0.0203,0.8985,0.4385,0.1871,0.0776,-0.3454,-0.173,-0.5402,-1.4378,0.2074,0.9762,0.0931,dws
1772309656,3.1337,-1.1162,3.0116,0.0035,0.8985,0.4391,0.2604,-0.0806,-0.3534,0.0819,-0.876,-1.1138,0.2639,0.8178,0.0857,dws
1772309656,-3.1305,-1.1206,3.0569,-0.0048,0.9004,0.4351,0.166,-0.2511,-0.3491,0.3694,-1.3064,-0.9002,0.1612,0.6492,0.086,dws
1772309656,-3.1227,-1.1302,3.0961,-0.008,0.9045,0.4264,0.1292,-0.2986,-0.3339,0.5918,-1.4514,-0.7716,0.1211,0.6059,0.0924,dws
1772309656,-3.1233,-1.1425,3.1274,-0.0076,0.9097,0.4153,0.4097,-0.4235,-0.3135,0.6641,-1.4193,-0.5108,0.4021,0.4862,0.1018,dws
1772309656,-3.1315,-1.1566,-3.1372,-0.0041,0.9155,0.4024,0.4801,-0.4668,-0.3186,0.7542,-1.0885,-0.2099,0.476,0.4487,0.0838,dws
1772309656,3.1379,-1.1721,-3.1328,0.0015,0.9216,0.3882,0.387,-0.4163,-0.3211,0.808,-0.7301,0.0303,0.3885,0.5053,0.067,dws
1772309656,3.1193,-1.1893,-3.1395,0.0083,0.9281,0.3722,0.266,-0.375,-0.3225,0.938,-0.5372,0.1826,0.2743,0.5531,0.0497,dws
1772309656,3.0969,-1.2094,3.13,0.0158,0.9354,0.3533,0.1508,-0.342,-0.3182,1.0839,-0.4593,0.2458,0.1666,0.5934,0.0351,dws
1772309656,3.0681,-1.2317,3.1111,0.0244,0.9431,0.3317,0.0993,-0.3001,-0.2892,1.2115,-0.7071,0.2731,0.1237,0.643,0.0425,dws
1772309656,3.0255,-1.2577,3.0858,0.0357,0.9514,0.3059,0.0362,-0.3172,-0.2674,1.5223,-1.1712,0.2962,0.0719,0.6342,0.0385,dws
1772309656,2.9622,-1.2918,3.0492,0.0491,0.9613,0.271,-0.0673,-0.3519,-0.2664,1.9934,-1.676,0.2417,-0.0181,0.6094,0.0046,dws
1772309656,2.8764,-1.3322,2.9991,0.0619,0.9717,0.2281,-0.148,-0.3212,-0.1001,2.2191,-2.0188,0.1222,-0.0861,0.6504,0.128,dws
1772309656,2.766,-1.3742,2.9283,0.0716,0.9807,0.1817,-0.2025,-0.1977,0.0841,2.2437,-2.1236,0.0042,-0.1308,0.783,0.2658,dws
1772309656,2.6327,-1.4129,2.8361,0.0766,0.9876,0.1373,-0.2796,-0.0683,0.3922,1.8771,-2.1423,-0.2061,-0.203,0.9192,0.5295,dws
1772309656,2.5278,-1.4405,2.7725,0.0748,0.9915,0.1062,-0.3675,0.0638,0.8207,0.8655,-1.9479,-0.4842,-0.2926,1.0553,0.9269,dws
1772309656,2.5501,-1.4538,2.8236,0.0651,0.9932,0.0969,-0.2863,0.1271,0.9222,0.0014,-0.7414,-0.8205,-0.2212,1.1203,1.0191,dws
1772309656,2.7132,-1.4606,2.9847,0.0457,0.9939,0.1,-0.0128,-0.0813,0.4546,-0.2252,0.7571,-1.0539,0.0328,0.9126,0.5546,dws
1772309656,2.9027,-1.4608,-3.1168,0.026,0.994,0.1066,0.4658,-0.3786,0.381,-0.4834,-0.0852,-0.7457,0.4918,0.6154,0.4876,dws
1772309656,2.9899,-1.454,-3.0156,0.0176,0.9932,0.1151,0.7508,-0.3862,0.0903,-0.2364,-1.2312,-0.2636,0.7684,0.607,0.2054,dws
1772309656,2.9376,-1.4508,-3.0334,0.0242,0.9928,0.1172,0.7425,0.4526,-0.3561,-0.0871,-2.1073,0.505,0.7668,1.4454,-0.2389,dws
1772309656,2.8032,-1.4428,-3.134,0.0424,0.9918,0.1204,0.1537,1.1102,-0.2906,-0.6191,-1.0127,0.9186,0.1961,2.102,-0.1703,dws
1772309656,2.7534,-1.4273,3.1089,0.0541,0.9897,0.1324,-0.7807,0.4282,-0.6311,-0.1914,0.2273,0.1018,-0.7266,1.4179,-0.4987,dws
1772309656,2.7904,-1.427,3.1394,0.0493,0.9897,0.1345,-1.0269,0.935,-0.0051,-0.2995,-0.0105,-0.585,-0.9776,1.9247,0.1294,dws
1772309656,2.8999,-1.4204,-3.0258,0.0358,0.9887,0.1455,-0.2434,0.9386,0.5058,-0.6917,-0.4957,-0.6912,-0.2076,1.9273,0.6512,dws
1772309656,2.9633,-1.4122,-2.9535,0.028,0.9875,0.1554,0.3717,0.736,-0.5459,-0.2848,-0.5249,-0.2435,0.3997,1.7235,-0.3905,dws
1772309656,2.9696,-1.4122,-2.931,0.027,0.9875,0.1556,0.0829,0.4481,-0.6253,0.2605,-0.9856,-0.1324,0.11,1.4355,-0.4697,dws
1772309656,2.9565,-1.4237,-2.926,0.027,0.9892,0.144,-0.0306,0.3092,-0.562,0.8515,-0.8006,-0.1593,-0.0036,1.2984,-0.418,dws
1772309656,2.9336,-1.4458,-2.936,0.0257,0.9922,0.122,-0.0102,0.1389,-0.5326,1.3033,-0.483,-0.1227,0.0156,1.1311,-0.4106,dws
1772309656,2.8871,-1.4732,-2.9776,0.0245,0.9952,0.0943,0.1364,0.0187,-0.2204,1.4537,-0.0444,-0.0386,0.161,1.0139,-0.1261,dws
1772309656,2.7751,-1.4998,-3.088,0.0254,0.9975,0.0662,0.0429,0.0395,0.0962,1.3073,-0.2686,0.1027,0.0683,1.037,0.1624,dws
1772309656,2.5727,-1.5181,3.0025,0.0284,0.9986,0.0443,-0.1738,-0.0196,0.3017,0.8368,-0.6666,0.1522,-0.1454,0.979,0.346,dws
1772309656,2.3541,-1.5267,2.7965,0.0313,0.999,0.0311,-0.245,-0.2014,0.257,0.5039,-0.5882,0.0674,-0.2137,0.7976,0.2882,dws
1772309656,2.1597,-1.5322,2.6113,0.0321,0.9993,0.0215,-0.0862,-0.3255,0.1007,0.4671,-0.338,0.0292,-0.0541,0.6738,0.1222,dws
1772309656,1.9118,-1.5352,2.3679,0.0335,0.9994,0.0119,0.0805,-0.3952,0,0.4874,-0.1619,0.119,0.114,0.6041,0.0119,dws
1772309656,1.6071,-1.5338,2.0657,0.037,0.9993,0.0013,0.1599,-0.3964,-0.0116,0.5567,-0.1272,0.2631,0.1969,0.603,-0.0102,dws
1772309656,1.3523,-1.526,1.8149,0.0437,0.999,-0.0097,0.1482,-0.3372,0.0575,0.5213,-0.3235,0.4027,0.1919,0.6618,0.0477,dws
1772309656,1.2162,-1.5154,1.6875,0.0519,0.9985,-0.0192,-0.0113,-0.2623,0.1411,0.3743,-0.5415,0.4226,0.0405,0.7362,0.1219,dws
1772309656,1.1696,-1.5058,1.6511,0.0598,0.9979,-0.0254,-0.1528,-0.3119,0.2173,0.1945,-0.4345,0.4007,-0.093,0.686,0.1919,dws
1772309656,1.1783,-1.4978,1.6654,0.0674,0.9973,-0.0279,-0.1918,-0.2661,0.2579,0.034,-0.1209,0.3881,-0.1244,0.7312,0.23,dws
1772309656,1.2164,-1.4902,1.7042,0.0755,0.9968,-0.028,-0.1212,-0.1039,0.2721,-0.0213,-0.0038,0.4515,-0.0457,0.8929,0.2442,dws
1772309656,1.2753,-1.4815,1.7633,0.0853,0.996,-0.026,-0.0764,-0.2735,0.1218,-0.2073,0.0245,0.5055,0.0089,0.7226,0.0959,dws
1772309656,1.3571,-1.4737,1.8453,0.0947,0.9953,-0.0205,-0.2277,-0.4353,0.001,-0.2883,-0.0537,0.432,-0.133,0.56,-0.0196,dws
1772309656,1.4019,-1.4669,1.8936,0.1022,0.9946,-0.0174,-0.291,-0.3688,0.0266,-0.0248,-0.256,0.3518,-0.1888,0.6258,0.0092,dws
1772309656,1.3918,-1.4596,1.8885,0.1092,0.9938,-0.0198,-0.2797,-0.199,-0.0339,0.1388,-0.1889,0.378,-0.1705,0.7949,-0.0537,dws
1772309656,1.4101,-1.4517,1.9069,0.1173,0.9929,-0.019,-0.3327,-0.0345,0.3267,-0.3241,0.2198,0.4299,-0.2154,0.9585,0.3077,dws
1772309656,1.5189,-1.4444,2.0119,0.1259,0.992,-0.0065,-0.3761,0.0047,0.6331,-0.7964,0.0695,0.4506,-0.2502,0.9967,0.6266,dws
1772309657,1.665,-1.4342,2.1629,0.1356,0.9907,0.0128,-0.239,-0.0699,0.5272,-1.2961,-0.3607,0.537,-0.1034,0.9207,0.54,dws
1772309657,1.8723,-1.4158,2.3808,0.1474,0.988,0.0458,-0.1249,-0.0865,0.8246,-2.1992,-0.4011,0.6417,0.0225,0.9015,0.8705,dws
1772309657,2.11,-1.3826,2.6262,0.1606,0.9823,0.0961,-0.0388,-0.0251,0.7154,-3.0111,-0.0804,0.6301,0.1218,0.9572,0.8114,dws
1772309657,2.3374,-1.3345,2.8607,0.1686,0.9722,0.1624,-0.1477,0.5435,0.5944,-3.6716,-0.1414,0.1125,0.0209,1.5157,0.7567,dws
1772309657,2.515,-1.2843,3.053,0.1657,0.9592,0.2289,-0.5086,1.4255,-0.0076,-3.346,-0.7601,-0.6622,-0.3429,2.3848,0.2213,dws
1772309657,2.6624,-1.2435,-3.0678,0.1482,0.9469,0.2853,-0.3956,1.114,-0.6849,-2.7457,0.3441,-1.1609,-0.2474,2.0609,-0.3996,dws
1772309657,2.7776,-1.2086,-2.9501,0.1261,0.9351,0.3311,0.1418,0.5903,-0.7227,-2.1043,-0.1839,-1.0593,0.268,1.5255,-0.3915,dws
1772309657,2.8493,-1.1809,-2.8641,0.1095,0.9249,0.364,0.0002,0.5981,-0.4459,-1.6132,-0.3987,-1.0981,0.1097,1.5231,-0.0819,dws
1772309657,2.9262,-1.1578,-2.7816,0.0858,0.9159,0.3921,-0.1398,0.8108,0.0104,-1.4218,0.4101,-1.3829,-0.054,1.7267,0.4025,dws
1772309657,3.009,-1.1385,-2.702,0.0554,0.908,0.4153,-0.0474,0.7462,-0.2067,-1.0713,0.3984,-1.4882,0.008,1.6542,0.2086,dws
1772309657,3.0792,-1.1229,-2.6265,0.027,0.9014,0.4322,0.0626,0.3253,-0.3063,-0.7611,-0.2171,-1.5729,0.0896,1.2267,0.126,dws
1772309657,3.1342,-1.1132,-2.558,0.0033,0.8971,0.4418,0.395,0.0796,-0.3777,-0.3254,-0.3379,-1.3286,0.3983,0.9767,0.0641,dws
1772309657,-3.1112,-1.1108,-2.5069,-0.0135,0.8961,0.4437,0.3937,-0.0998,-0.3286,0.1214,-0.6209,-0.9826,0.3802,0.7963,0.1151,dws
1772309657,-3.0899,-1.1163,-2.4659,-0.0227,0.8985,0.4384,0.1536,-0.1184,-0.3733,0.4425,-0.8052,-0.8405,0.1309,0.7801,0.0651,dws
1772309657,-3.073,-1.1249,-2.4312,-0.0295,0.9022,0.4303,0.3274,-0.2403,-0.2917,0.521,-0.6947,-0.589,0.2979,0.662,0.1386,dws
1772309657,-3.065,-1.1362,-2.4074,-0.0322,0.907,0.4198,0.3763,-0.3971,-0.3883,0.7008,-0.6535,-0.3453,0.3441,0.5099,0.0314,dws
1772309657,-3.0639,-1.1515,-2.3928,-0.0316,0.9134,0.4059,0.3254,-0.4081,-0.397,0.8663,-0.5963,-0.1378,0.2938,0.5053,0.0089,dws
1772309657,-3.0705,-1.1699,-2.3869,-0.0277,0.9207,0.3893,0.2789,-0.3981,-0.4005,0.9862,-0.6255,0.0449,0.2512,0.5226,-0.0112,dws
1772309657,-3.0866,-1.1906,-2.3902,-0.0204,0.9286,0.3705,0.2251,-0.4565,-0.3835,1.0853,-0.6995,0.2173,0.2047,0.4721,-0.013,dws
1772309657,-3.1141,-1.2135,-2.4034,-0.0096,0.9369,0.3496,0.1496,-0.5122,-0.3572,1.1966,-0.8698,0.358,0.14,0.4247,-0.0076,dws
1772309657,3.1244,-1.2391,-2.4284,0.0056,0.9455,0.3256,0.0981,-0.5396,-0.3174,1.3977,-1.2803,0.5064,0.1037,0.4059,0.0083,dws
1772309657,3.0546,-1.2694,-2.4694,0.0258,0.9549,0.2958,-0.0005,-0.5065,-0.3181,1.722,-1.8619,0.5997,0.0253,0.4484,-0.0224,dws
1772309657,2.9556,-1.3044,-2.527,0.0487,0.9647,0.2588,-0.1598,-0.4135,-0.1978,1.9589,-2.4994,0.4959,-0.1111,0.5512,0.0609,dws
1772309657,2.8369,-1.3427,-2.5942,0.0678,0.9741,0.2157,-0.2786,-0.315,-0.0199,2.1861,-2.8082,0.1723,-0.2107,0.6591,0.1958,dws
1772309657,2.7049,-1.3843,-2.6729,0.0784,0.9827,0.1681,-0.2645,-0.081,0.3282,2.1924,-2.6523,-0.2153,-0.186,0.9017,0.4962,dws
1772309657,2.6149,-1.4181,-2.7195,0.0764,0.9884,0.1315,-0.3633,0.2244,1.1082,0.9874,-1.5599,-0.6252,-0.2868,1.2128,1.2397,dws
1772309657,2.6708,-1.4318,-2.6527,0.0629,0.9903,0.1235,-0.3332,0.1161,1.1255,-0.1096,0.439,-0.8828,-0.2704,1.1065,1.2491,dws
1772309657,2.839,-1.4318,-2.4995,0.0413,0.9904,0.1322,-0.0756,-0.1814,0.4732,-0.5966,0.9271,-1.0428,-0.0343,0.809,0.6054,dws
1772309657,2.9963,-1.423,-2.3502,0.0213,0.9891,0.1457,0.4015,-0.4825,0.2276,-0.7884,-0.1575,-0.7795,0.4228,0.5065,0.3733,dws
1772309657,3.0582,-1.4083,-2.2756,0.0135,0.9868,0.1612,0.5911,-0.8553,-0.1716,-0.5843,-0.8922,-0.2247,0.6046,0.1316,-0.0104,dws
1772309657,3.0139,-1.4053,-2.2853,0.021,0.9863,0.1634,0.5475,0.0628,-0.7806,0.247,-2.6579,0.4541,0.5685,1.0491,-0.6172,dws
1772309657,2.859,-1.408,-2.3833,0.0452,0.9868,0.1556,0.4319,1.467,-0.322,0.2528,-2.2421,1.0704,0.4771,2.4538,-0.1664,dws
1772309657,2.7486,-1.4058,-2.4745,0.0629,0.9864,0.1517,-0.2104,1.385,-0.3063,0.1823,-0.0206,0.2369,-0.1475,2.3714,-0.1546,dws
1772309657,2.8031,-1.3999,-2.4357,0.0565,0.9854,0.1604,-1.0309,1.1848,0.9535,-1.4611,0.9226,-0.5488,-0.9745,2.1702,1.1139,dws
1772309657,2.9149,-1.3675,-2.3296,0.0454,0.9794,0.1968,-0.2665,1.0789,0.4387,-1.6754,0.1542,-0.3769,-0.2211,2.0583,0.6354,dws
1772309657,2.9448,-1.3455,-2.2914,0.0437,0.9747,0.2191,0.4615,0.4331,-1.2145,-0.5835,-0.9816,0.038,0.5051,1.4078,-0.9954,dws
1772309657,2.9196,-1.3435,-2.2965,0.0496,0.9743,0.2198,0.0102,0.2055,-0.8662,0.3648,-0.894,-0.0086,0.0598,1.1797,-0.6464,dws
1772309657,2.9074,-1.36,-2.2973,0.0485,0.9779,0.2035,-0.2909,0.1353,-0.692,1.1915,-0.2233,-0.2679,-0.2424,1.1132,-0.4885,dws
1772309657,2.8974,-1.3894,-2.3079,0.0436,0.9836,0.175,-0.0645,0.0678,-0.626,1.6838,0.1902,-0.2031,-0.0208,1.0514,-0.451,dws
1772309657,2.8703,-1.4241,-2.3402,0.0392,0.9893,0.1409,0.0004,0.0082,-0.3688,1.7492,0.2194,-0.1647,0.0396,0.9975,-0.228,dws
1772309657,2.816,-1.4583,-2.3938,0.0359,0.9937,0.1063,-0.1819,0.0178,-0.1307,1.7374,-0.4263,-0.1583,-0.146,1.0115,-0.0244,dws
1772309657,2.7103,-1.4888,-2.4835,0.0342,0.9966,0.0744,-0.3089,0.0943,0.1734,1.3545,-1.1589,-0.1055,-0.2747,1.0909,0.2478,dws
1772309657,2.5573,-1.5082,-2.6138,0.0345,0.998,0.0522,-0.2094,0.1154,0.4529,0.8542,-1.021,-0.0442,-0.1749,1.1135,0.5051,dws
1772309657,2.3864,-1.5201,-2.7707,0.0347,0.9987,0.0369,0.0918,-0.0776,0.2713,0.6394,-0.4794,0.0332,0.1265,0.9211,0.3082,dws
1772309657,2.194,-1.5243,-2.9545,0.0377,0.9989,0.0271,0.2287,-0.1746,0.1735,0.2894,-0.4122,0.239,0.2664,0.8244,0.2006,dws
1772309657,2.0548,-1.5214,-3.0867,0.0437,0.9988,0.023,0.1616,-0.2015,0.1342,0.1501,-0.3326,0.338,0.2053,0.7972,0.1572,dws
1772309657,1.9333,-1.5166,3.0817,0.0506,0.9985,0.0192,0.0798,-0.2514,0.1509,0.1909,-0.3294,0.3752,0.1304,0.7472,0.1701,dws
1772309657,1.8338,-1.5101,2.9881,0.0586,0.9982,0.0158,0.0242,-0.2569,0.3166,0.0572,-0.2625,0.4416,0.0828,0.7413,0.3324,dws
1772309657,1.8222,-1.5001,2.9807,0.0684,0.9975,0.0176,-0.1096,-0.2872,0.3134,-0.2008,-0.1374,0.5358,-0.0412,0.7103,0.3309,dws
1772309657,1.8477,-1.488,3.0091,0.0795,0.9966,0.0226,-0.2334,-0.3431,0.0341,-0.3179,-0.2026,0.5626,-0.1538,0.6534,0.0567,dws
1772309658,1.8671,-1.4761,3.0348,0.0904,0.9955,0.0276,-0.3085,-0.4136,-0.055,-0.2058,-0.4489,0.5259,-0.2181,0.5819,-0.0273,dws
1772309658,1.851,-1.4659,3.0301,0.1006,0.9945,0.029,-0.2866,-0.4039,-0.0017,-0.0734,-0.6619,0.474,-0.186,0.5906,0.0273,dws
1772309658,1.829,-1.4563,3.0217,0.1104,0.9935,0.0292,-0.2097,-0.3829,0.1128,-0.0757,-0.6955,0.4929,-0.0992,0.6105,0.142,dws
1772309658,1.7985,-1.4462,3.0037,0.1211,0.9922,0.0281,-0.1678,-0.327,-0.0021,0.0402,-0.5078,0.5653,-0.0467,0.6653,0.0259,dws
1772309658,1.7718,-1.4344,2.9833,0.1332,0.9907,0.0271,-0.2015,-0.3267,0.1676,-0.0693,-0.1787,0.6409,-0.0683,0.664,0.1947,dws
1772309658,1.7739,-1.4209,2.9883,0.1463,0.9888,0.0301,-0.2156,-0.2534,0.3313,-0.2347,-0.1777,0.657,-0.0693,0.7354,0.3615,dws
1772309658,1.7783,-1.407,2.9995,0.1596,0.9866,0.0336,-0.2414,-0.2566,0.1878,-0.2432,-0.4602,0.679,-0.0819,0.73,0.2214,dws
1772309658,1.7915,-1.392,3.0225,0.1735,0.9841,0.0389,-0.2798,-0.2455,0.2149,-0.5288,-0.4723,0.7145,-0.1063,0.7386,0.2538,dws
1772309658,1.8577,-1.3741,3.0978,0.1874,0.9807,0.0553,-0.3277,-0.2384,0.6066,-1.3915,-0.2872,0.6321,-0.1403,0.7423,0.6619,dws
1772309658,2.0136,-1.3509,-3.0201,0.1971,0.9759,0.0935,-0.339,0.279,0.9559,-2.63,-0.3611,0.2982,-0.1419,1.2549,1.0494,dws
1772309658,2.2175,-1.3178,-2.8003,0.1998,0.9682,0.1508,-0.3296,1.0298,0.6861,-3.3988,-0.7498,-0.1777,-0.1298,1.998,0.8369,dws
1772309658,2.3971,-1.2816,-2.5914,0.1933,0.9585,0.2098,-0.3753,1.4398,0.1748,-3.0981,-1.2218,-0.833,-0.182,2.3983,0.3846,dws
1772309658,2.5434,-1.2465,-2.425,0.1795,0.9479,0.2633,0.3033,1.0701,-0.3963,-2.7331,0.1413,-0.8043,0.4828,2.018,-0.133,dws
1772309658,2.6491,-1.2117,-2.3184,0.1662,0.9362,0.3097,0.5365,0.7074,-0.8398,-2.1036,0.0005,-0.5288,0.7027,1.6437,-0.5301,dws
1772309658,2.7151,-1.1838,-2.2415,0.1561,0.926,0.3436,0.0191,0.6688,-0.4384,-1.6725,-0.4309,-0.7866,0.1753,1.5949,-0.0947,dws
1772309658,2.7839,-1.1625,-2.163,0.139,0.9178,0.3719,-0.2211,0.9527,-0.0316,-1.4848,0.1296,-1.1794,-0.082,1.8705,0.3403,dws
1772309658,2.8656,-1.1446,-2.0831,0.1126,0.9105,0.3978,-0.0637,0.654,-0.0991,-1.2264,0.711,-1.3211,0.0489,1.5646,0.2987,dws
1772309658,2.9452,-1.1303,-2.0087,0.0832,0.9045,0.4182,0.1182,0.2689,-0.3564,-0.9354,0.4013,-1.3672,0.2014,1.1735,0.0618,dws
1772309658,3.009,-1.1186,-1.9442,0.0578,0.8995,0.4331,0.2701,0.1221,-0.3267,-0.6575,0.2161,-1.1698,0.3279,1.0215,0.1064,dws
1772309658,3.0559,-1.112,-1.894,0.0379,0.8966,0.4413,0.2687,-0.0104,-0.3503,-0.2281,-0.1999,-0.9927,0.3066,0.8861,0.0909,dws
1772309658,3.0826,-1.1136,-1.8509,0.026,0.8973,0.4406,0.1374,-0.1838,-0.4665,0.2031,-0.9032,-0.94,0.1634,0.7135,-0.0259,dws
1772309658,3.0974,-1.1195,-1.8122,0.0193,0.8999,0.4357,0.1397,-0.371,-0.3992,0.2944,-1.1061,-0.7865,0.159,0.5289,0.0365,dws
1772309658,3.1042,-1.1279,-1.7796,0.016,0.9035,0.4283,0.2191,-0.4948,-0.4649,0.5018,-1.1436,-0.6585,0.2352,0.4087,-0.0366,dws
1772309658,3.1062,-1.1409,-1.7526,0.0148,0.909,0.4165,0.2285,-0.5274,-0.4577,0.7734,-1.0482,-0.511,0.2433,0.3817,-0.0413,dws
1772309658,3.1055,-1.1592,-1.734,0.0145,0.9165,0.3998,0.2359,-0.5204,-0.4306,1.0277,-0.7642,-0.3079,0.2503,0.3961,-0.0309,dws
1772309658,3.1002,-1.1821,-1.7246,0.0157,0.9254,0.3787,0.2018,-0.4976,-0.3981,1.2441,-0.6951,-0.1541,0.2175,0.4278,-0.0194,dws
1772309658,3.086,-1.2084,-1.7228,0.0197,0.935,0.354,0.1064,-0.495,-0.3461,1.3784,-0.9541,-0.0387,0.1261,0.4401,0.0079,dws
1772309658,3.058,-1.2363,-1.7295,0.0274,0.9446,0.3272,0.0405,-0.4668,-0.2893,1.4194,-1.2033,0.0883,0.0679,0.4778,0.0379,dws
1772309658,3.0137,-1.2646,-1.7486,0.0385,0.9535,0.299,0.0206,-0.4268,-0.252,1.5093,-1.4683,0.1958,0.059,0.5267,0.047,dws
1772309658,2.9516,-1.296,-1.7791,0.0512,0.9625,0.2664,-0.0003,-0.3938,-0.2423,1.7653,-1.8334,0.1506,0.0509,0.5687,0.0241,dws
1772309658,2.8724,-1.3323,-1.8198,0.0628,0.9717,0.2277,-0.0606,-0.3351,-0.1505,2.0333,-2.1415,0.0262,0.0022,0.6366,0.0773,dws
1772309658,2.7722,-1.3732,-1.8766,0.0709,0.9805,0.183,-0.0971,-0.1505,-0.0347,2.2264,-2.3427,-0.1409,-0.0263,0.83,0.1483,dws
1772309658,2.643,-1.4139,-1.9604,0.0747,0.9877,0.1372,-0.1231,0.0948,0.3113,2.0087,-2.3285,-0.2407,-0.0483,1.0825,0.4486,dws
1772309658,2.5387,-1.4443,-2.0279,0.0715,0.992,0.1039,-0.1792,0.293,0.9311,0.9908,-1.0921,-0.5639,-0.1077,1.285,1.035,dws
1772309658,2.588,-1.4609,-1.9757,0.0577,0.994,0.0933,-0.0185,0.1336,0.9305,0.1764,0.5756,-0.8199,0.0392,1.1275,1.0238,dws
1772309658,2.7401,-1.4681,-1.8397,0.0401,0.9947,0.0943,0.3506,-0.132,0.4995,-0.1344,0.9422,-0.745,0.3907,0.8628,0.5938,dws
1772309658,2.8745,-1.4672,-1.7172,0.0273,0.9946,0.0997,0.4897,-0.3255,0.2144,-0.3471,0.3153,-0.4097,0.517,0.6691,0.3141,dws
1772309658,2.9369,-1.4638,-1.6565,0.0217,0.9943,0.1046,0.296,-0.5177,-0.2692,-0.0388,-0.1826,-0.2017,0.3177,0.4766,-0.1646,dws
1772309658,2.9394,-1.4688,-1.6411,0.0204,0.9948,0.0998,0.169,-0.3729,-0.4044,0.4138,-1.0688,0.0251,0.1895,0.6219,-0.3046,dws
1772309658,2.8337,-1.4747,-1.7173,0.0291,0.9954,0.0915,0.1136,0.465,-0.2513,0.2633,-1.9321,0.5479,0.1427,1.4604,-0.1599,dws
1772309658,2.6706,-1.4704,-1.8398,0.0455,0.995,0.0893,-0.1794,1.086,-0.3866,-0.2415,-2.2013,0.5965,-0.1339,2.081,-0.2973,dws
1772309658,2.5863,-1.4743,-1.8946,0.0508,0.9953,0.0819,-0.5011,1.0119,-0.5178,1.0071,-0.13,-0.2843,-0.4503,2.0072,-0.4359,dws
1772309658,2.6766,-1.4836,-1.828,0.039,0.9962,0.0778,-0.6907,1.106,1.275,-0.9888,1.815,-0.7613,-0.6517,2.1022,1.3528,dws
1772309658,2.952,-1.464,-1.5716,0.0201,0.9943,0.1047,0.0091,0.6215,0.3281,-1.3684,0.1761,-0.7191,0.0292,1.6158,0.4328,dws
1772309658,3.0635,-1.4454,-1.4632,0.0098,0.9922,0.1246,0.3616,0.7635,-0.5919,-0.5419,0.0268,-0.2374,0.3714,1.7557,-0.4673,dws
1772309658,3.0717,-1.4423,-1.4482,0.009,0.9917,0.1279,0.3069,0.5315,-0.5441,0.1403,-0.5956,0.0385,0.3158,1.5232,-0.4162,dws
1772309658,3.0402,-1.4492,-1.4688,0.0123,0.9926,0.1207,0.1676,0.2817,-0.3354,0.5271,-0.3727,0.1512,0.1799,1.2743,-0.2147,dws
1772309658,2.9955,-1.4606,-1.5122,0.016,0.9939,0.1088,0.0581,0.0755,-0.2355,0.6634,0.2044,0.2136,0.0741,1.0695,-0.1267,dws
1772309658,2.9366,-1.4717,-1.5782,0.0201,0.9951,0.0969,0.0127,-0.0598,-0.1307,0.5333,0.3512,0.2662,0.0329,0.9353,-0.0338,dws
1772309658,2.8553,-1.48,-1.6605,0.0256,0.9959,0.087,-0.0665,-0.1663,-0.0576,0.4982,-0.3747,0.2889,-0.0409,0.8295,0.0294,dws
1772309659,2.7414,-1.4889,-1.7625,0.0319,0.9966,0.0754,-0.1988,-0.2903,-0.0099,0.6302,-0.686,0.2536,-0.1669,0.7063,0.0655,dws
1772309659,2.6103,-1.4979,-1.8842,0.0369,0.9973,0.0628,-0.2855,-0.3532,0.0419,0.5801,-0.29,0.1851,-0.2486,0.6442,0.1047,dws
1772309659,2.4868,-1.5052,-2.0054,0.0399,0.9979,0.052,-0.1669,-0.3907,-0.0032,0.5091,-0.019,0.1284,-0.127,0.6071,0.0488,dws
1772309659,2.3412,-1.511,-2.1494,0.0429,0.9982,0.0417,0.0022,-0.3827,-0.0544,0.5452,-0.2432,0.1868,0.0451,0.6155,-0.0127,dws
1772309659,2.1293,-1.515,-2.3544,0.0473,0.9984,0.0296,0.0173,-0.3841,0.065,0.6462,-0.3864,0.22,0.0646,0.6143,0.0945,dws
1772309659,1.8691,-1.517,-2.6102,0.0514,0.9986,0.0158,-0.045,-0.3354,0.2002,0.687,-0.0719,0.1851,0.0065,0.6631,0.216,dws
1772309659,1.6366,-1.5154,-2.8438,0.0552,0.9985,0.0036,-0.091,-0.2684,0.1708,0.5253,0.068,0.2145,-0.0358,0.73,0.1744,dws
1772309659,1.4786,-1.5104,-3.001,0.0601,0.9982,-0.0056,-0.121,-0.2286,0.0356,0.418,-0.1911,0.273,-0.061,0.7696,0.03,dws
1772309659,1.3714,-1.5037,-3.104,0.0657,0.9978,-0.0133,-0.1545,-0.2238,0.1676,0.3032,-0.1746,0.296,-0.0888,0.7739,0.1543,dws
1772309659,1.3347,-1.4966,-3.1397,0.0721,0.9972,-0.0173,-0.1637,-0.3331,0.2653,0.1147,0.0391,0.3531,-0.0916,0.6641,0.248,dws
1772309659,1.3319,-1.4887,3.1413,0.0797,0.9966,-0.0194,-0.1188,-0.3988,0.0311,0.1225,-0.191,0.4134,-0.0391,0.5978,0.0117,dws
1772309659,1.3078,-1.4793,3.1251,0.0882,0.9958,-0.0238,-0.1131,-0.4029,-0.0576,0.2305,-0.5374,0.4717,-0.0249,0.5929,-0.0814,dws
1772309659,1.2962,-1.4687,3.1204,0.0981,0.9948,-0.0276,-0.1285,-0.2514,0.3002,0.0629,-0.0739,0.5413,-0.0304,0.7434,0.2726,dws
1772309659,1.3341,-1.4574,-3.1251,0.11,0.9936,-0.0265,-0.1224,-0.077,0.3594,-0.1831,0.0053,0.6692,-0.0124,0.9166,0.3329,dws
1772309659,1.423,-1.4443,-3.0342,0.1248,0.992,-0.0186,-0.0703,0.0201,0.5013,-0.7217,-0.1535,0.8487,0.0545,1.0121,0.4827,dws
1772309659,1.5977,-1.4272,-2.8534,0.1431,0.9897,0.0038,-0.0671,0.0292,0.9335,-1.5929,-0.2734,0.991,0.076,1.0189,0.9373,dws
1772309659,1.8291,-1.4015,-2.6124,0.1629,0.9857,0.043,-0.1338,-0.0008,0.8586,-2.5563,-0.4158,0.9756,0.0291,0.9849,0.9016,dws
1772309659,2.092,-1.3621,-2.3349,0.1797,0.9783,0.1032,-0.2801,0.5811,0.9478,-3.7373,-0.4947,0.613,-0.1004,1.5594,1.0509,dws
1772309659,2.3351,-1.3108,-2.0743,0.1855,0.9664,0.1779,-0.5684,1.4735,0.4006,-3.9539,-0.5733,-0.2228,-0.3829,2.4398,0.5785,dws
1772309659,2.5213,-1.2631,-1.8691,0.176,0.953,0.2464,-0.5603,1.3022,-0.4777,-3.3462,-0.2226,-0.9764,-0.3843,2.2552,-0.2313,dws
1772309659,2.6654,-1.2237,-1.7213,0.1559,0.9404,0.3023,0.1423,0.7766,-0.8701,-2.5922,0.4209,-0.9391,0.2982,1.7169,-0.5678,dws
1772309659,2.7666,-1.1892,-1.6179,0.1364,0.9281,0.3465,0.024,0.5715,-0.5925,-2.0453,0.0507,-0.977,0.1604,1.4996,-0.246,dws
1772309659,2.8484,-1.1623,-1.5331,0.1148,0.9177,0.3803,-0.2344,1.09,-0.1589,-1.6188,0.2709,-1.2556,-0.1196,2.0078,0.2214,dws
1772309659,2.9349,-1.142,-1.4466,0.0854,0.9094,0.407,-0.2731,1.0222,-0.1453,-1.1664,0.4756,-1.6677,-0.1878,1.9317,0.2617,dws
1772309659,3.0216,-1.1301,-1.3556,0.051,0.9045,0.4235,-0.062,0.4842,-0.4557,-0.7378,-0.2126,-1.8573,-0.011,1.3887,-0.0323,dws
1772309659,3.0865,-1.1214,-1.2706,0.0239,0.9007,0.4338,0.2642,0.1658,-0.4768,-0.3879,-0.8253,-1.6928,0.2881,1.0665,-0.043,dws
1772309659,3.1295,-1.1191,-1.2027,0.0053,0.8997,0.4365,0.3313,-0.0696,-0.4761,0.0358,-1.0615,-1.2612,0.3366,0.8301,-0.0397,dws
1772309659,-3.1318,-1.1226,-1.1524,-0.0043,0.9012,0.4333,0.1742,-0.2113,-0.4042,0.3023,-1.1833,-0.9572,0.1699,0.6899,0.0291,dws
1772309659,-3.1203,-1.1303,-1.114,-0.0091,0.9045,0.4263,0.2989,-0.3582,-0.4079,0.4851,-1.1783,-0.6713,0.2899,0.5464,0.0184,dws
1772309659,-3.1201,-1.1417,-1.0883,-0.009,0.9094,0.4159,0.4102,-0.5156,-0.4532,0.6878,-1.0996,-0.3942,0.4012,0.3938,-0.0373,dws
1772309659,-3.1282,-1.1571,-1.0751,-0.0054,0.9156,0.402,0.423,-0.5867,-0.4541,0.8491,-0.9623,-0.1197,0.4176,0.329,-0.0521,dws
1772309659,3.1394,-1.1753,-1.0717,0.0008,0.9228,0.3853,0.2814,-0.5604,-0.4056,0.9903,-0.9584,-0.0148,0.2823,0.3624,-0.0203,dws
1772309659,3.119,-1.1967,-1.0723,0.0083,0.9308,0.3653,0.1638,-0.5286,-0.3676,1.1717,-1.0273,0.0254,0.172,0.4023,-0.0022,dws
1772309659,3.0906,-1.2217,-1.0799,0.0174,0.9397,0.3416,0.1129,-0.496,-0.3373,1.3265,-1.1521,0.1754,0.1303,0.4437,0.0043,dws
1772309659,3.044,-1.2475,-1.1018,0.0309,0.9482,0.3162,0.0766,-0.4443,-0.3255,1.29,-1.4861,0.3444,0.1075,0.5039,-0.0093,dws
1772309659,2.9777,-1.2717,-1.136,0.0481,0.9556,0.2907,0.002,-0.3692,-0.2968,1.2885,-1.9009,0.3665,0.0501,0.5864,-0.0061,dws
1772309659,2.897,-1.2969,-1.1787,0.0655,0.9627,0.2624,-0.0405,-0.281,-0.2724,1.475,-2.0387,0.2914,0.025,0.6817,-0.01,dws
1772309659,2.8079,-1.3269,-1.2306,0.0791,0.9704,0.2282,-0.0883,-0.1432,-0.2137,1.8019,-1.8502,0.1163,-0.0092,0.8272,0.0145,dws
1772309659,2.7101,-1.3629,-1.2948,0.0863,0.9785,0.1875,-0.142,0.0115,-0.0161,2.0678,-1.7079,-0.1421,-0.0557,0.9899,0.1714,dws
1772309659,2.6105,-1.4008,-1.3666,0.0857,0.9856,0.1459,-0.2111,0.1383,0.3844,1.7829,-1.0781,-0.4111,-0.1255,1.1239,0.5302,dws
1772309659,2.5679,-1.4281,-1.3962,0.0772,0.9898,0.1195,-0.1478,0.189,0.8178,0.7745,-0.3645,-0.6231,-0.0706,1.1788,0.9373,dws
1772309659,2.6158,-1.4419,-1.3442,0.0645,0.9917,0.1112,-0.0052,0.0255,0.7037,0.1432,-0.0081,-0.6821,0.0593,1.0172,0.8149,dws
1772309659,2.7002,-1.449,-1.2601,0.0519,0.9926,0.1098,0.1073,-0.2239,0.2866,0.0267,-0.0475,-0.5604,0.1592,0.7687,0.3964,dws
1772309659,2.7627,-1.4519,-1.1886,0.0439,0.9929,0.1102,0.1243,-0.3887,0.1607,-0.0975,-0.8169,-0.3504,0.1682,0.6042,0.2709,dws
1772309659,2.7885,-1.453,-1.1418,0.0407,0.9931,0.1103,0.0791,-0.394,0.0483,0.0853,-1.1804,-0.2323,0.1198,0.599,0.1586,dws
1772309659,2.7882,-1.4612,-1.1195,0.0378,0.994,0.1026,-0.0134,-0.3789,-0.0297,0.555,-0.9081,-0.3224,0.0245,0.6151,0.0729,dws
1772309659,2.8211,-1.4745,-1.0774,0.0303,0.9954,0.0912,-0.0379,-0.3465,-0.1438,0.4543,-0.0927,-0.5091,-0.0076,0.6488,-0.0525,dws
1772309659,2.8677,-1.4812,-1.0256,0.0242,0.996,0.0862,0.1881,0.4013,-0.261,0.0864,-0.509,-0.0756,0.2124,1.3973,-0.1749,dws
1772309659,2.7926,-1.4858,-1.0815,0.029,0.9964,0.0798,0.4004,1.407,-0.2926,0.5619,-1.337,0.2659,0.4294,2.4034,-0.2128,dws
1772309659,2.6923,-1.4924,-1.1561,0.034,0.9969,0.0705,-0.249,0.2656,0.0333,0.1712,-0.9998,-0.0521,-0.215,1.2625,0.1039,dws
1772309659,2.7486,-1.4895,-1.0956,0.0311,0.9967,0.075,-0.4092,0.7475,0.3626,-0.6246,0.2764,-0.2453,-0.3781,1.7442,0.4376,dws
1772309660,2.8818,-1.4784,-0.9682,0.0237,0.9957,0.0892,-0.3611,1.3451,0.3991,-0.7414,0.4315,-0.4765,-0.3374,2.3408,0.4883,dws
1772309660,3.0084,-1.4632,-0.8436,0.0143,0.9942,0.1064,0.1505,0.6987,-0.0135,-1.0278,-0.6038,-0.2687,0.1648,1.6929,0.093,dws
1772309660,3.0386,-1.4475,-0.8008,0.0126,0.9924,0.1223,0.1612,0.5311,-0.5782,-0.4547,-0.6016,-0.033,0.1739,1.5235,-0.4559,dws
1772309660,3.0305,-1.4464,-0.7938,0.0138,0.9923,0.1233,0.1162,0.3353,-0.5753,0.3102,-0.7909,-0.0285,0.13,1.3276,-0.452,dws
1772309660,3.0075,-1.4577,-0.804,0.0151,0.9936,0.1118,0.085,0.1207,-0.4759,0.8055,-0.4905,0.0019,0.1001,1.1143,-0.3641,dws
1772309660,2.967,-1.477,-0.84,0.0163,0.9956,0.0923,0.1103,-0.1019,-0.3953,1.113,0.0093,0.0972,0.1266,0.8937,-0.3031,dws
1772309660,2.8742,-1.4989,-0.9341,0.019,0.9974,0.0693,0.0457,-0.2036,-0.2527,1.1865,-0.0087,0.182,0.0647,0.7938,-0.1834,dws
1772309660,2.6826,-1.5196,-1.1205,0.0227,0.9987,0.0458,-0.1775,-0.1721,-0.0751,1.1489,-0.5979,0.1145,-0.1549,0.8266,-0.0292,dws
1772309660,2.3591,-1.536,-1.4293,0.0245,0.9994,0.0247,-0.2946,-0.1466,0.1595,0.8987,-0.8314,0.051,-0.2701,0.8528,0.1841,dws
1772309660,1.9289,-1.5444,-1.8426,0.0247,0.9997,0.0093,-0.2396,-0.2131,0.3466,0.6568,-0.8182,-0.0367,-0.2148,0.7865,0.3559,dws
1772309660,1.4428,-1.5462,-2.3178,0.0244,0.9997,-0.0031,0.042,-0.2728,0.2926,0.5486,-0.2856,0.0524,0.0664,0.7269,0.2895,dws
1772309660,1.1607,-1.5412,-2.5966,0.0271,0.9996,-0.0118,0.1365,-0.3199,0.247,0.3074,-0.1322,0.2491,0.1636,0.6797,0.2352,dws
1772309660,1.1245,-1.5334,-2.6288,0.0338,0.9993,-0.0162,0.0813,-0.3437,0.1429,0.151,-0.2826,0.4187,0.115,0.6556,0.1267,dws
1772309660,1.1548,-1.5241,-2.5922,0.0427,0.9989,-0.0189,0.0124,-0.3538,0.2501,0.1058,-0.3176,0.4907,0.0551,0.6451,0.2312,dws
1772309660,1.1931,-1.5144,-2.548,0.0524,0.9984,-0.0208,-0.0968,-0.3156,0.183,0.034,-0.2908,0.4859,-0.0445,0.6828,0.1622,dws
1772309660,1.2569,-1.5057,-2.4771,0.0618,0.9979,-0.0201,-0.1642,-0.2921,0.0798,-0.137,-0.4203,0.482,-0.1023,0.7058,0.0597,dws
1772309660,1.3338,-1.4978,-2.3912,0.0709,0.9973,-0.0171,-0.195,-0.3681,0.1557,-0.1925,-0.4459,0.442,-0.1242,0.6293,0.1386,dws
1772309660,1.388,-1.4904,-2.3279,0.079,0.9968,-0.0146,-0.1499,-0.4279,0.1186,-0.1148,-0.4441,0.3939,-0.0709,0.5689,0.104,dws
1772309660,1.4016,-1.4829,-2.3045,0.0865,0.9961,-0.0148,-0.0824,-0.4848,-0.1304,0.0704,-0.5445,0.3875,0.0041,0.5114,-0.1452,dws
1772309660,1.3572,-1.4745,-2.338,0.0939,0.9954,-0.0204,-0.0771,-0.5452,-0.1635,0.4149,-0.5505,0.3928,0.0169,0.4502,-0.1839,dws
1772309660,1.2709,-1.4637,-2.4154,0.1021,0.9943,-0.0316,-0.0607,-0.4843,-0.1094,0.5328,-0.3014,0.4534,0.0414,0.51,-0.141,dws
1772309660,1.2552,-1.4532,-2.4346,0.1115,0.9931,-0.0364,-0.1381,0.1018,0.6575,-0.1042,0.6155,0.5185,-0.0266,1.0949,0.6211,dws
1772309660,1.3568,-1.4434,-2.3427,0.1242,0.9919,-0.027,-0.2287,0.3573,0.7356,-0.6754,0.2266,0.703,-0.1045,1.3492,0.7086,dws
1772309660,1.5231,-1.4303,-2.1694,0.1398,0.9902,-0.0067,-0.139,-0.1033,0.7789,-1.6082,-0.7098,0.9319,0.0008,0.8868,0.7722,dws
1772309660,1.7978,-1.4057,-1.8743,0.1602,0.9864,0.037,0.0012,-0.0842,1.3153,-3.0541,-0.8468,1.0507,0.1614,0.9022,1.3523,dws
1772309660,2.1005,-1.3636,-1.5553,0.1775,0.9786,0.1039,-0.1585,0.7898,0.9562,-3.8615,-0.2651,0.5757,0.019,1.7684,1.0602,dws
1772309660,2.3442,-1.3117,-1.2954,0.1833,0.9666,0.179,-0.6365,1.5393,-0.0158,-3.9754,-0.7098,-0.1082,-0.4532,2.506,0.1631,dws
1772309660,2.5263,-1.2635,-1.0944,0.1746,0.9532,0.247,-0.7606,1.3217,-0.7104,-3.164,-0.1161,-1.0166,-0.586,2.2748,-0.4634,dws
1772309660,2.677,-1.2275,-0.9443,0.1508,0.9417,0.3009,0.011,0.9234,-0.8126,-2.4786,0.52,-1.1647,0.1618,1.8651,-0.5117,dws
1772309660,2.787,-1.1966,-0.8293,0.1269,0.9308,0.3428,-0.0972,0.8468,-0.5044,-1.9663,-0.3313,-1.2924,0.0298,1.7776,-0.1616,dws
1772309660,2.8752,-1.1709,-0.7282,0.1025,0.9211,0.3756,-0.2138,1.1547,-0.1198,-1.7171,0.0145,-1.5814,-0.1113,2.0758,0.2558,dws
1772309660,2.9675,-1.1482,-0.6301,0.071,0.912,0.404,0.0618,0.7734,-0.292,-1.308,-0.075,-1.7287,0.1328,1.6854,0.112,dws
1772309660,3.0385,-1.1305,-0.5428,0.0439,0.9046,0.4239,0.2357,0.318,-0.4047,-0.9952,-0.6669,-1.605,0.2796,1.2227,0.0192,dws
1772309660,3.0899,-1.1173,-0.4746,0.0227,0.8989,0.4375,0.3441,0.0077,-0.4895,-0.4974,-0.4141,-1.2182,0.3668,0.9066,-0.052,dws
1772309660,3.1201,-1.114,-0.4265,0.0095,0.8975,0.441,0.2306,-0.16,-0.5539,0.0586,-0.9182,-0.9081,0.2401,0.7375,-0.1129,dws
1772309660,3.1306,-1.1193,-0.3899,0.0048,0.8998,0.4363,0.0582,-0.2056,-0.4738,0.3905,-1.2852,-0.7247,0.063,0.6942,-0.0375,dws
1772309660,3.1311,-1.1279,-0.3607,0.0045,0.9035,0.4285,0.0904,-0.2721,-0.3872,0.4699,-1.2601,-0.5351,0.0949,0.6315,0.0413,dws
1772309660,3.1267,-1.1395,-0.3394,0.0062,0.9084,0.418,0.4151,-0.423,-0.4754,0.6868,-1.1282,-0.3838,0.4214,0.4855,-0.0574,dws
1772309660,3.1191,-1.1552,-0.3249,0.0091,0.9149,0.4037,0.4542,-0.4406,-0.4429,0.8761,-0.9439,-0.2275,0.4632,0.4743,-0.0392,dws
1772309660,3.1086,-1.175,-0.318,0.0127,0.9227,0.3854,0.378,-0.4489,-0.4141,1.1093,-0.8119,-0.0962,0.3907,0.4738,-0.0287,dws
1772309660,3.0908,-1.1993,-0.319,0.0184,0.9318,0.3625,0.212,-0.4605,-0.3381,1.3197,-0.9395,0.0394,0.2305,0.4713,0.0244,dws
1772309660,3.0569,-1.2265,-0.3313,0.0285,0.9413,0.3363,0.0585,-0.4639,-0.2578,1.4354,-1.3123,0.2285,0.0871,0.4774,0.0785,dws
1772309660,2.998,-1.2551,-0.3614,0.0444,0.9506,0.3073,-0.0231,-0.4323,-0.2374,1.5233,-1.7897,0.4022,0.0213,0.5182,0.0699,dws
1772309660,2.9133,-1.2835,-0.4071,0.0641,0.959,0.2761,-0.1176,-0.3712,-0.2369,1.5289,-2.2907,0.3806,-0.0535,0.5878,0.0392,dws
1772309660,2.8164,-1.3111,-0.4584,0.082,0.9665,0.2433,-0.1421,-0.2955,-0.2061,1.5204,-2.4274,0.1822,-0.06,0.6709,0.0372,dws
1772309660,2.7202,-1.3389,-0.5103,0.094,0.9732,0.2097,-0.0721,-0.2758,-0.1199,1.5765,-2.1557,-0.0201,0.0219,0.6974,0.0898,dws
1772309660,2.624,-1.3697,-0.5679,0.0988,0.9798,0.1736,-0.0662,-0.1486,0.0717,1.7329,-1.8159,-0.2804,0.0326,0.8313,0.2453,dws
1772309660,2.5392,-1.401,-0.6266,0.0957,0.9856,0.1392,-0.0297,0.0412,0.4934,1.3642,-0.7971,-0.4568,0.066,1.0268,0.6326,dws
1772309660,2.5172,-1.4209,-0.6433,0.0873,0.9888,0.1211,-0.0137,0.1468,0.8192,0.4417,0.1362,-0.4782,0.0736,1.1356,0.9403,dws
1772309660,2.5676,-1.4289,-0.6007,0.0768,0.99,0.1187,-0.0189,0.0192,0.525,-0.0574,0.6105,-0.4761,0.0579,1.0091,0.6438,dws
1772309661,2.6436,-1.4304,-0.5327,0.0668,0.9902,0.1229,0.008,-0.1309,0.2647,-0.2626,0.0713,-0.4329,0.0749,0.8592,0.3877,dws
1772309661,2.703,-1.4302,-0.4648,0.0595,0.9901,0.1269,0.0214,-0.299,0.0409,-0.1362,-0.7456,-0.4049,0.0809,0.6911,0.1678,dws
1772309661,2.7345,-1.4339,-0.4163,0.054,0.9906,0.1253,-0.0052,-0.3841,-0.1041,0.2301,-0.8344,-0.3761,0.0488,0.6065,0.0212,dws
1772309661,2.7477,-1.445,-0.388,0.0481,0.9921,0.1158,-0.0505,-0.3872,-0.1291,0.6309,-0.67,-0.4255,-0.0024,0.605,-0.0133,dws
1772309661,2.7718,-1.4623,-0.3518,0.0391,0.9941,0.101,0.0163,-0.3023,-0.1274,0.7848,-0.5643,-0.598,0.0555,0.6918,-0.0264,dws
1772309661,2.7756,-1.478,-0.331,0.0332,0.9957,0.0866,0.3539,0.4752,-0.0818,0.5029,-1.3069,-0.0631,0.3871,1.4709,0.0048,dws
1772309661,2.6715,-1.4821,-0.4027,0.0401,0.9961,0.079,0.4265,1.2925,-0.0565,0.2004,-1.6537,0.4018,0.4666,2.2886,0.0225,dws
1772309661,2.5738,-1.4828,-0.4756,0.0473,0.9961,0.0741,-0.1197,0.5538,-0.0753,0.1598,-0.725,0.0791,-0.0725,1.55,-0.0012,dws
1772309661,2.6224,-1.478,-0.4347,0.046,0.9957,0.0804,-0.455,0.4536,0.333,-0.7232,1.1367,-0.1137,-0.4091,1.4493,0.4134,dws
1772309661,2.754,-1.4698,-0.3169,0.0381,0.9949,0.0934,-0.4007,1.0555,-0.0022,-0.4674,0.6345,-0.548,-0.3625,2.0504,0.0911,dws
1772309661,2.8844,-1.4646,-0.1921,0.027,0.9944,0.1025,-0.1863,0.7335,-0.0699,-0.4444,0.0417,-0.4547,-0.1593,1.7278,0.0326,dws
1772309661,2.9703,-1.4602,-0.1064,0.0188,0.9939,0.1087,0.0595,0.5054,-0.4704,-0.0942,-0.1533,-0.279,0.0783,1.4993,-0.3617,dws
1772309661,2.9903,-1.4651,-0.0793,0.0159,0.9944,0.1043,0.1336,0.4191,-0.5817,0.5133,-0.5343,-0.0953,0.1495,1.4135,-0.4774,dws
1772309661,2.962,-1.4804,-0.097,0.0161,0.9959,0.0889,0.1549,0.2473,-0.4579,0.9968,-0.4199,0.0184,0.1711,1.2433,-0.3691,dws
1772309661,2.882,-1.5005,-0.1724,0.018,0.9975,0.0678,0.1666,0.0635,-0.2026,1.031,-0.1347,0.1393,0.1846,1.061,-0.1348,dws
1772309661,2.7296,-1.5159,-0.3208,0.022,0.9985,0.0503,0.0246,-0.0506,0.0984,0.7183,-0.3346,0.2125,0.0466,0.9479,0.1486,dws
1772309661,2.5488,-1.5234,-0.4934,0.0265,0.9989,0.0393,-0.0974,-0.1677,0.2427,0.3945,-0.4716,0.1872,-0.071,0.8312,0.282,dws
1772309661,2.386,-1.527,-0.6472,0.0301,0.999,0.0319,-0.1062,-0.2518,0.1593,0.3559,-0.4313,0.1475,-0.0762,0.7472,0.1912,dws
1772309661,2.2037,-1.5294,-0.8227,0.0334,0.9991,0.0245,0.0155,-0.3053,0.0942,0.3794,-0.2465,0.1985,0.0489,0.6939,0.1187,dws
1772309661,1.981,-1.5288,-1.0421,0.0385,0.9991,0.0168,0.0959,-0.3613,0.0564,0.3735,-0.1323,0.3295,0.1344,0.6378,0.0732,dws
1772309661,1.7884,-1.5237,-1.2323,0.0459,0.9989,0.0102,0.0185,-0.3937,0.1078,0.2821,-0.1362,0.4222,0.0644,0.6052,0.1179,dws
1772309661,1.6608,-1.5162,-1.3574,0.0543,0.9985,0.0049,-0.107,-0.3754,0.1861,0.2372,-0.1299,0.4074,-0.0527,0.6231,0.191,dws
1772309661,1.5744,-1.5092,-1.4426,0.0615,0.9981,0.0002,-0.1824,-0.308,0.1706,0.2094,0.0097,0.3308,-0.1208,0.6901,0.1708,dws
1772309661,1.5309,-1.503,-1.4867,0.0677,0.9977,-0.0027,-0.1956,-0.2519,0.0701,0.0862,0.0013,0.3065,-0.1279,0.7458,0.0674,dws
1772309661,1.5268,-1.4964,-1.4895,0.0743,0.9972,-0.0033,-0.1085,-0.2468,0.134,-0.0372,-0.1303,0.3637,-0.0342,0.7505,0.1308,dws
1772309661,1.5474,-1.4888,-1.4668,0.0819,0.9966,-0.0019,-0.1017,-0.222,0.2432,-0.1103,-0.0089,0.4084,-0.0198,0.7747,0.2413,dws
1772309661,1.5875,-1.4808,-1.4288,0.0899,0.996,0.0015,-0.1692,-0.2606,0.1391,-0.2173,0.1902,0.3976,-0.0793,0.7354,0.1406,dws
1772309661,1.6409,-1.473,-1.3779,0.0974,0.9952,0.0068,-0.1894,-0.3069,0.0049,-0.2872,0.0146,0.3693,-0.092,0.6883,0.0117,dws
1772309661,1.6899,-1.4653,-1.3252,0.1046,0.9944,0.0125,-0.1994,-0.4163,0.1471,-0.3147,-0.3049,0.3623,-0.0948,0.5781,0.1596,dws
1772309661,1.7182,-1.4574,-1.2901,0.1119,0.9936,0.0166,-0.2329,-0.2941,0.0256,-0.1017,-0.3577,0.354,-0.1209,0.6994,0.0422,dws
1772309661,1.6845,-1.4506,-1.3156,0.1192,0.9928,0.0136,-0.2672,-0.1782,-0.1598,0.2921,-0.4809,0.3757,-0.1481,0.8146,-0.1462,dws
1772309661,1.6151,-1.4433,-1.3763,0.127,0.9919,0.0056,-0.326,-0.153,-0.0393,0.2993,-0.3715,0.3956,-0.199,0.8389,-0.0336,dws
1772309661,1.5956,-1.4356,-1.392,0.1348,0.9909,0.0033,-0.4431,0.0454,0.4458,-0.1263,-0.153,0.4046,-0.3083,1.0363,0.4491,dws
1772309661,1.6221,-1.4266,-1.3566,0.1436,0.9896,0.0074,-0.3341,0.2237,0.5213,-0.3562,-0.775,0.4993,-0.1905,1.2133,0.5287,dws
1772309661,1.6681,-1.4143,-1.2899,0.1552,0.9878,0.0151,-0.1886,-0.005,0.5092,-0.8503,-1.1138,0.6596,-0.0335,0.9827,0.5244,dws
1772309661,1.8022,-1.396,-1.1324,0.1692,0.9848,0.0399,-0.1239,0.1467,0.8363,-2.1401,-1.0271,0.6518,0.0453,1.1315,0.8762,dws
1772309661,2.032,-1.3691,-0.8748,0.1794,0.9797,0.0892,-0.3179,1.0954,0.8575,-3.1728,-1.2819,0.1365,-0.1384,2.0751,0.9466,dws
1772309661,2.2735,-1.338,-0.6085,0.1761,0.973,0.1491,-0.4061,1.3442,0.2729,-3.2568,-0.5004,-0.6697,-0.23,2.3172,0.422,dws
1772309661,2.4892,-1.3045,-0.3864,0.1598,0.9648,0.2091,0.1345,0.9996,-0.3846,-2.866,0.6099,-0.8743,0.2942,1.9644,-0.1754,dws
1772309661,2.6468,-1.2713,-0.2366,0.1401,0.9555,0.2597,0.3846,0.6387,-0.8636,-2.1933,0.6365,-0.8452,0.5247,1.5942,-0.6039,dws
1772309661,2.7537,-1.2448,-0.1345,0.1211,0.9473,0.2964,0.1146,0.3813,-0.6125,-1.57,0.2306,-0.8807,0.2357,1.3286,-0.3161,dws
1772309661,2.8326,-1.224,-0.0518,0.1034,0.9405,0.3238,-0.0092,0.6607,-0.1567,-1.3671,-0.013,-0.9247,0.0942,1.6012,0.1671,dws
1772309661,2.905,-1.2033,0.0247,0.0842,0.9332,0.3493,-0.1187,0.7152,0.0256,-1.3488,-0.0191,-1.1335,-0.0345,1.6485,0.3749,dws
1772309661,2.9683,-1.1849,0.1004,0.0649,0.9265,0.3707,-0.0988,0.2631,-0.4232,-1.0318,-0.6423,-1.1924,-0.0339,1.1896,-0.0524,dws
1772309661,3.0147,-1.1702,0.1655,0.0493,0.9208,0.3869,0.1317,0.0098,-0.4076,-0.7841,-0.6442,-1.0358,0.1811,0.9306,-0.0207,dws
1772309661,3.0491,-1.1598,0.2172,0.0369,0.9167,0.3978,0.2284,-0.0843,-0.4451,-0.4914,-0.6295,-0.8942,0.2652,0.8324,-0.0473,dws
1772309661,3.0719,-1.1546,0.2594,0.0282,0.9146,0.4033,0.2436,-0.1655,-0.4698,-0.1547,-0.9937,-0.7747,0.2718,0.7491,-0.0665,dws
1772309661,3.0829,-1.156,0.2962,0.0236,0.9152,0.4023,0.2267,-0.2591,-0.4839,0.2026,-1.2076,-0.7243,0.2504,0.6561,-0.0816,dws
1772309661,3.0899,-1.1637,0.3279,0.0205,0.9183,0.3954,0.3028,-0.353,-0.4548,0.4971,-1.0019,-0.5636,0.3233,0.5652,-0.0593,dws
1772309661,3.0919,-1.1764,0.3489,0.0191,0.9232,0.3838,0.3194,-0.4722,-0.4521,0.7161,-0.7486,-0.2964,0.3385,0.451,-0.0683,dws
1772309662,3.087,-1.192,0.3569,0.0202,0.9291,0.3692,0.2215,-0.4942,-0.4265,0.8413,-0.5042,-0.1101,0.2417,0.4349,-0.0573,dws
1772309662,3.0795,-1.2101,0.3583,0.0219,0.9357,0.3522,0.0968,-0.4964,-0.3913,0.9817,-0.4264,-0.0527,0.1187,0.4392,-0.039,dws
1772309662,3.0683,-1.2317,0.3566,0.0244,0.9431,0.3317,0.0334,-0.511,-0.3397,1.2022,-0.5718,-0.0349,0.0578,0.4321,-0.0079,dws
1772309662,3.0471,-1.2588,0.3496,0.029,0.9517,0.3056,0.0406,-0.4983,-0.3068,1.5507,-0.9309,0.0467,0.0696,0.4535,-0.0013,dws
1772309662,3.0043,-1.2924,0.3294,0.0376,0.9615,0.2722,0.0196,-0.3989,-0.2695,1.839,-1.4302,0.1318,0.0572,0.5627,0.0027,dws
1772309662,2.9383,-1.3285,0.2964,0.0484,0.9708,0.235,-0.0651,-0.3191,-0.1251,1.8267,-1.9727,0.0889,-0.0166,0.6517,0.1099,dws
1772309662,2.8543,-1.3618,0.2532,0.0588,0.9782,0.1989,-0.1192,-0.2659,-0.0201,1.6629,-2.1505,0.0431,-0.0605,0.7124,0.1788,dws
1772309662,2.7595,-1.3925,0.1985,0.0661,0.9842,0.1645,-0.1623,-0.2099,0.1215,1.6125,-1.9574,-0.0998,-0.0961,0.7742,0.286,dws
1772309662,2.6825,-1.4222,0.1532,0.0656,0.989,0.1328,-0.2482,-0.1273,0.4909,1.322,-1.1334,-0.4376,-0.1826,0.8616,0.6237,dws
1772309662,2.6795,-1.4446,0.1617,0.0561,0.992,0.1127,-0.2455,-0.0391,0.7337,0.6318,-0.1986,-0.6426,-0.1894,0.953,0.8463,dws
1772309662,2.7598,-1.4557,0.2459,0.0428,0.9934,0.1066,-0.0647,-0.0356,0.6149,-0.0094,-0.2344,-0.7083,-0.0219,0.9577,0.7215,dws
1772309662,2.8762,-1.4556,0.3692,0.0301,0.9934,0.1109,0.1983,-0.1714,0.4302,-0.3625,-0.3309,-0.6169,0.2284,0.8219,0.5411,dws
1772309662,2.9669,-1.452,0.4649,0.0206,0.993,0.1167,0.3139,-0.4431,0.1753,-0.2153,-0.1026,-0.385,0.3345,0.5499,0.292,dws
1772309662,3.0158,-1.4494,0.5157,0.0152,0.9926,0.1201,0.1651,-0.613,0.1119,-0.1242,-0.0023,-0.2391,0.1803,0.3797,0.232,dws
1772309662,3.0569,-1.4469,0.5573,0.0105,0.9923,0.1232,0.1264,-0.1677,-0.2555,-0.2645,-0.2579,-0.103,0.1368,0.8246,-0.1323,dws
1772309662,3.0228,-1.4383,0.5385,0.0157,0.9912,0.1312,0.3411,1.2142,-0.2737,-0.3128,-1.3498,0.3998,0.3567,2.2054,-0.1425,dws
1772309662,2.9366,-1.4379,0.4731,0.027,0.9912,0.1297,0.5076,2.0833,-0.3533,0.1142,-0.6969,0.3185,0.5345,3.0745,-0.2236,dws
1772309662,2.9365,-1.427,0.4749,0.0292,0.9897,0.1403,-0.6863,0.1658,0.442,-1.0017,0.6538,-0.148,-0.6571,1.1555,0.5824,dws
1772309662,3.0037,-1.4109,0.5324,0.0219,0.9872,0.1577,-0.1873,0.8184,-0.4459,-0.6976,0.2319,-0.23,-0.1654,1.8056,-0.2882,dws
1772309662,3.0452,-1.4037,0.5718,0.016,0.9861,0.1656,-0.1129,0.5099,-0.4308,-0.0787,-0.0329,-0.3217,-0.0969,1.496,-0.2652,dws
1772309662,3.0702,-1.4081,0.6079,0.0115,0.9868,0.1615,-0.1254,0.5022,-0.7293,0.5058,-0.8037,-0.3149,-0.1139,1.489,-0.5677,dws
1772309662,3.0925,-1.4236,0.6453,0.0072,0.9892,0.1465,-0.0597,0.4888,-0.5653,0.9426,-0.5681,-0.3465,-0.0526,1.478,-0.4188,dws
1772309662,3.1272,-1.4442,0.6881,0.0018,0.992,0.1263,0.1147,0.3866,-0.2028,1.0879,-0.269,-0.2637,0.1165,1.3786,-0.0765,dws
1772309662,-3.1231,-1.467,0.7262,-0.0019,0.9946,0.1036,0.12,0.1301,-0.1925,1.2038,-0.2407,-0.1661,0.1181,1.1247,-0.0889,dws
1772309662,-3.0961,-1.4922,0.758,-0.0036,0.9969,0.0785,0.1226,0.1137,-0.1001,1.2987,-0.1877,-0.0233,0.119,1.1106,-0.0217,dws
1772309662,-3.1054,-1.5153,0.7544,-0.002,0.9985,0.0555,0.0133,0.1017,0.2124,0.9581,-0.4773,0.1109,0.0113,1.1002,0.2679,dws
1772309662,3.1327,-1.5314,0.721,0.0004,0.9992,0.0394,-0.1221,-0.0118,0.3565,0.7106,-0.6159,0.0698,-0.1217,0.9874,0.3959,dws
1772309662,3.074,-1.5441,0.6729,0.0018,0.9996,0.0266,-0.0807,-0.1924,0.1909,0.5918,-0.4398,0.0602,-0.0789,0.8073,0.2175,dws
1772309662,2.9076,-1.5549,0.5138,0.0037,0.9999,0.0155,0.0522,-0.2741,0.0406,0.5297,-0.3123,0.1331,0.0559,0.7258,0.0561,dws
1772309662,2.1308,-1.5617,-0.258,0.0078,1,0.0049,0.1752,-0.2939,0.0212,0.5584,-0.2004,0.2901,0.183,0.7061,0.026,dws
1772309662,1.1561,-1.5544,-1.2303,0.015,0.9999,-0.0066,0.1714,-0.3057,0.0925,0.5644,-0.0296,0.4556,0.1864,0.6942,0.0859,dws
1772309662,0.9634,-1.5411,-1.4232,0.0244,0.9996,-0.0169,-0.0475,-0.3041,0.1517,0.4581,0.0091,0.4589,-0.0231,0.6955,0.1348,dws
1772309662,0.9282,-1.5306,-1.4569,0.0322,0.9992,-0.0241,-0.2641,-0.2923,0.1913,0.2596,-0.1782,0.3331,-0.2319,0.7069,0.1672,dws
1772309662,0.9328,-1.5234,-1.4465,0.038,0.9989,-0.0282,-0.2779,-0.3068,0.1739,0.1498,-0.4088,0.2859,-0.2399,0.692,0.1457,dws
1772309662,0.9435,-1.5179,-1.4266,0.0428,0.9986,-0.031,-0.2377,-0.2661,0.1838,0.0996,-0.4518,0.2252,-0.1949,0.7325,0.1528,dws
1772309662,0.9644,-1.5132,-1.3986,0.0473,0.9983,-0.0328,-0.1026,-0.1377,0.2231,0.0435,-0.2787,0.2745,-0.0553,0.8607,0.1903,dws
1772309662,1.0297,-1.5078,-1.3277,0.054,0.998,-0.0324,0.001,-0.1217,0.2277,-0.1274,-0.2767,0.4255,0.0549,0.8763,0.1952,dws
1772309662,1.1559,-1.5011,-1.1967,0.0637,0.9976,-0.0281,-0.0333,-0.2076,0.157,-0.3283,-0.1675,0.5486,0.0304,0.7899,0.1289,dws
1772309662,1.2996,-1.4934,-1.0492,0.0745,0.997,-0.0207,-0.1453,-0.2733,0.1151,-0.4304,-0.1994,0.5324,-0.0708,0.7237,0.0944,dws
1772309662,1.4278,-1.4852,-0.9155,0.0847,0.9963,-0.0122,-0.166,-0.2943,0.1512,-0.4143,-0.3516,0.512,-0.0813,0.702,0.139,dws
1772309662,1.4913,-1.4754,-0.8419,0.0949,0.9955,-0.0076,-0.1597,-0.2255,-0.0321,-0.1201,-0.5947,0.5345,-0.0648,0.7699,-0.0396,dws
1772309662,1.4874,-1.4643,-0.834,0.1059,0.9943,-0.0089,-0.1838,-0.1222,-0.0648,0.0723,-0.4794,0.5918,-0.0779,0.8721,-0.0736,dws
1772309662,1.4945,-1.4525,-0.8219,0.1177,0.993,-0.009,-0.3282,-0.0139,0.3074,-0.1463,-0.1596,0.6035,-0.2106,0.9791,0.2984,dws
1772309662,1.5345,-1.4405,-0.7757,0.1299,0.9915,-0.0047,-0.3869,-0.09,0.28,-0.3356,-0.4871,0.6406,-0.257,0.9015,0.2753,dws
1772309662,1.5894,-1.4273,-0.7073,0.143,0.9897,0.0027,-0.3585,-0.1719,0.3101,-0.6613,-0.7059,0.6984,-0.2155,0.8179,0.3127,dws
1772309662,1.7167,-1.4109,-0.5666,0.1575,0.9872,0.0231,-0.2793,-0.1395,0.9231,-1.6785,-0.5191,0.7657,-0.1217,0.8478,0.9462,dws
1772309662,1.8957,-1.3871,-0.3706,0.1731,0.9832,0.0583,-0.1402,0.0882,0.5647,-2.1127,-0.9058,0.7456,0.033,1.0713,0.623,dws
1772309662,2.0822,-1.3552,-0.1619,0.1866,0.9768,0.1047,-0.1739,0.3978,0.4207,-3.0191,-0.9178,0.4186,0.0127,1.3747,0.5254,dws
1772309662,2.2763,-1.3183,0.0559,0.1902,0.9683,0.162,-0.337,1.2199,0.3822,-3.0148,-0.7753,-0.3695,-0.1468,2.1882,0.5441,dws
1772309662,2.4556,-1.2905,0.2453,0.1752,0.961,0.214,-0.2775,1.162,-0.3937,-2.539,0.538,-1.1086,-0.1022,2.123,-0.1796,dws
1772309662,2.6199,-1.2641,0.4008,0.1505,0.9533,0.2617,0.2971,0.7099,-0.6809,-2.1244,0.6527,-1.1121,0.4475,1.6633,-0.4192,dws
1772309663,2.7343,-1.2423,0.5171,0.1278,0.9465,0.2962,0.1239,0.5098,-0.6059,-1.4822,-0.153,-1.2278,0.2516,1.4564,-0.3097,dws
1772309663,2.8333,-1.2262,0.6213,0.1025,0.9412,0.3219,0.0058,0.681,-0.1294,-1.2743,0.3048,-1.3501,0.1083,1.6222,0.1925,dws
1772309663,2.931,-1.2097,0.7157,0.0739,0.9355,0.3455,-0.0006,0.6904,-0.0478,-1.1258,0.42,-1.3945,0.0733,1.6259,0.2976,dws
1772309663,3.0133,-1.1947,0.8004,0.047,0.9301,0.3643,0.0297,0.3005,-0.3427,-0.8921,-0.0083,-1.3355,0.0767,1.2306,0.0216,dws
1772309663,3.0748,-1.1816,0.8708,0.0253,0.9252,0.3786,0.1331,0.0967,-0.3379,-0.7049,-0.3161,-1.1528,0.1584,1.0219,0.0407,dws
